acc_x, acc_y, angular_z, stamp, 
0.017698705196380615,-7.790327072143555e-05,-3.9969700805788093e-11,401397620,
-0.0019266009330749512,-0.0037105679512023926,-3.766852481690328e-11,414204325,
-0.02365487813949585,-0.00915670394897461,9.530365322335061e-06,420458458,
-0.007336020469665527,-0.02351301908493042,5.432285004717682e-06,431430672,
-0.015696346759796143,0.005455315113067627,-4.158103966178933e-12,542692917,
-0.015623152256011963,-0.005362212657928467,-6.339248831622662e-12,574595827,
-0.03014063835144043,-0.01615077257156372,-9.92426132431404e-12,581684075,
-0.035504043102264404,-0.02150702476501465,-2.3168730661957506e-12,591763447,
-0.01728951930999756,0.026997923851013184,-4.083772886405505e-12,601843581,
0.02225106954574585,0.028743207454681396,-1.2597374762085264e-12,610911980,
0.02405184507369995,0.021481692790985107,-3.608850038360697e-12,621920226,
0.00973278284072876,-0.001929938793182373,-5.625601995594089e-12,632123469,
-0.00958925485610962,-0.00015312433242797852,-4.209940099038557e-12,642138212,
0.018961012363433838,-0.03968369960784912,-2.7368439516734487e-12,655079853,
-0.004099369049072266,-0.021659374237060547,-4.037026285266978e-12,661797188,
-0.03303647041320801,-0.027001619338989258,-5.183680144832985e-13,671804713,
-0.03995007276535034,-0.010737836360931396,1.1257305537468612e-13,680896468,
-0.009441912174224854,-0.030387818813323975,-8.462871877774532e-13,691825127,
-0.00924903154373169,0.012819170951843262,-4.573353094954975e-12,703047137,
-0.021756470203399658,0.018258869647979736,-1.1459993094662725e-11,711827134,
0.0037355422973632812,-0.006798923015594482,-1.7587213957078705e-11,720904186,
0.005464017391204834,0.025534987449645996,-1.6528751522956604e-11,734660658,
0.012830615043640137,0.01476752758026123,-3.488284487961803e-11,741876714,
0.025647342205047607,0.0004181861877441406,-1.7096456100874667e-11,751886695,
0.03254216909408569,-0.0014057159423828125,-2.8256547345594834e-11,760934165,
0.009425222873687744,-0.01034390926361084,-1.4402103698710738e-11,771952007,
0.01799100637435913,-0.02290523052215576,-1.6385558046286086e-11,783383030,
0.012953341007232666,0.0005308389663696289,-2.76159824615879e-11,790905926,
-0.014253854751586914,-0.0209733247756958,-2.3838241993207217e-11,801975994,
-0.023164212703704834,-0.040596067905426025,-2.4724260428913698e-11,813915455,
-0.003290414810180664,-0.009918749332427979,-5.3778583548055006e-11,821961451,
0.005829811096191406,0.011754214763641357,-4.580641538183519e-11,831999944,
-0.01956355571746826,0.017186403274536133,-4.590319374402686e-11,842217411,
-0.003430664539337158,0.03156876564025879,-5.259741926293162e-11,852018389,
-0.0034168362617492676,0.01001739501953125,-4.892389767324109e-11,862827562,
0.029083669185638428,-0.0007359981536865234,-5.512542794315234e-11,872033373,
0.047125279903411865,0.01722007989883423,-4.5834714081070646e-11,882338569,
0.032271504402160645,0.004583954811096191,-2.7699863867420565e-11,893892209,
0.021703779697418213,-0.00258481502532959,-2.7302813553987556e-11,902110516,
0.003368854522705078,-0.018764972686767578,-1.2455515162130003e-11,912160093,
-0.012808918952941895,-0.01154547929763794,-5.99023898909376e-06,922110401,
-0.031006991863250732,-0.006143391132354736,-4.0158327747338226e-12,932209992,
-0.030788064002990723,-0.007874786853790283,-3.1649563968392555e-12,943009274,
-0.0379214882850647,-0.009617984294891357,-8.091826215059672e-12,952187004,
-0.01992720365524292,-0.016733109951019287,-1.4412374590062649e-11,962202223,
0.010425746440887451,0.015617430210113525,-1.433672976259704e-11,975030247,
-0.0018891692161560059,0.013863444328308105,-3.119179292672301e-11,982207371,
0.019598960876464844,-0.004080533981323242,-2.546968360629866e-11,992543492,
0.01061183214187622,-0.018399298191070557,-2.694861105192064e-11,2260150,
0.016022562980651855,0.0014072656631469727,-2.2394549419666276e-11,12307728,
0.010650455951690674,-0.018247365951538086,-3.355965315526195e-11,32305585,
0.02089458703994751,-0.01283276081085205,-5.0730960991951e-12,42296042,
0.014063358306884766,-0.001940310001373291,3.909669212688686e-12,54636610,
0.01732712984085083,-0.02520918846130371,2.5582162800065533e-11,62278911,
-0.009576141834259033,-0.042998433113098145,3.075360290807229e-11,72515860,
1.2421988248825073,0.4260200262069702,0.1795622936630795,374965900,
1.566916823387146,-0.10804092884063721,0.2669942095809621,382796787,
1.2378844022750854,-0.4125063419342041,0.15176498316013468,393035611,
0.617582380771637,-0.13320481777191162,0.128303290437887,402827744,
0.7735323905944824,0.17119145393371582,0.1390900421692405,412814166,
1.2162905931472778,0.03380793333053589,0.15318953376720462,423857549,
1.0632351636886597,-0.30049723386764526,0.2375837467538205,431919276,
0.6329267621040344,-0.22765618562698364,0.18620352943202798,442975636,
0.7134337425231934,0.18701136112213135,0.1991527119222839,454066425,
0.7275060415267944,0.5219816565513611,0.25521831388832217,463158269,
0.5724999904632568,0.4847486615180969,0.24758124885115035,472937181,
0.5667173862457275,0.2996097207069397,0.2557538226630957,483051396,
0.5133341550827026,0.19892281293869019,0.2931052942278866,502997687,
0.510367214679718,0.0870656967163086,0.3259067834688981,512995884,
0.4790770411491394,-0.2634217143058777,0.3193408788765267,523864306,
0.6845662593841553,0.06830966472625732,0.34081464748584284,534689059,
0.6810455322265625,0.05278521776199341,0.42724152151724476,543708538,
0.8012739419937134,0.008469760417938232,0.38403237991864764,554006225,
0.8122314214706421,0.1903439164161682,0.4518802228504995,563063516,
0.4527621269226074,0.5217330455780029,0.3959921746503362,573750582,
0.45615333318710327,0.5042890310287476,0.43372882959689224,583691853,
0.3906059265136719,0.1217314600944519,0.4459631236424136,593682779,
0.6321794986724854,-0.03165590763092041,0.5063450420383959,602914406,
0.7282274961471558,0.1306203007698059,0.3987408371074874,615049978,
0.7053806781768799,0.17456674575805664,0.5765934473349804,623679723,
0.5054247975349426,-0.29191720485687256,0.5182136442241303,633723777,
0.2138844132423401,0.024805009365081787,0.4608549681001114,645552784,
0.43471747636795044,0.6484153866767883,0.6793533982067391,653743321,
0.691652774810791,0.26822614669799805,0.5529073952837099,663784467,
1.1505645513534546,-0.08256244659423828,0.5455190607032339,673875499,
1.0777568817138672,0.3672434091567993,0.5544134028725173,683812474,
0.6262617707252502,0.5168980360031128,0.5172999836501826,694647912,
0.2806996703147888,-0.10535931587219238,0.6346588199375757,703725180,
0.2821807861328125,-0.10826671123504639,0.5883370694943185,713834382,
0.7345840930938721,0.5031237006187439,0.47760165963982915,726677887,
0.681107759475708,0.300994336605072,0.8846087129209936,733797101,
0.6269499063491821,0.032259583473205566,0.6358768897839703,743787405,
0.4214789867401123,0.024222850799560547,0.6451582804437436,753799376,
0.3315449357032776,0.020227372646331787,0.6646597545598603,763762400,
0.24181503057479858,0.23439228534698486,0.5803526195155092,775260373,
0.2707163691520691,0.576352596282959,0.7771977945801817,783784789,
0.240719735622406,0.16427987813949585,0.6607887888498757,793833904,
0.4631892442703247,-0.13345277309417725,0.6134422905179232,804895298,
0.5935754179954529,0.06434094905853271,0.7687022383345081,813790547,
0.22226309776306152,0.3370625972747803,0.6645809169067195,823809662,
0.10511964559555054,0.8172435164451599,0.6332810885326549,833789827,
0.18424361944198608,-0.08849650621414185,0.6103955681927574,843782086,
0.25988471508026123,-0.10653293132781982,0.5632017861113768,854651555,
-0.027951359748840332,0.5603933334350586,0.6801454270333911,863768948,
-0.29796338081359863,0.18793851137161255,0.6930871335445362,872939416,
-0.23092812299728394,-0.11288511753082275,0.49907179851932726,885828949,
-0.2520071268081665,0.05653667449951172,0.8175168667104067,893832995,
-0.3657490015029907,0.2784656882286072,0.6659395829931435,903838290,
-0.2934533953666687,0.9419299364089966,0.6621180453255467,913847850,
0.0840499997138977,0.2238817811012268,0.6502920207276376,923824652,
0.7512450814247131,-0.059407591819763184,0.5497381743709017,935422872,
0.27263355255126953,0.20133525133132935,0.7482757648752371,943841086,
-0.703808069229126,0.18965071439743042,0.7031757321536469,952915106,
-0.31339210271835327,0.1133689284324646,0.4832664673390434,966224445,
-0.28205543756484985,-0.22667276859283447,0.9656821356697344,972905523,
0.19812017679214478,0.03642541170120239,0.6505250798419532,982920189,
0.4888570308685303,0.8292461633682251,0.5921500814674056,993962184,
-0.20941901206970215,0.20461666584014893,0.6639811895923963,3878755,
0.055657267570495605,-0.022970378398895264,0.6198195001075324,14685859,
-0.0001221299171447754,0.5122985243797302,0.720634193099043,23953023,
0.06683248281478882,0.4571462869644165,0.6442830557091516,34262605,
-0.037271738052368164,0.3545914888381958,0.5407851210338238,46555541,
-0.00903409719467163,-0.2747316360473633,0.8753241215718802,54186535,
0.3291613459587097,-0.4180002212524414,0.7715800843354929,62928121,
-0.08046245574951172,0.880208432674408,0.5925770294838761,74028443,
-0.7037844061851501,0.2969362139701843,0.6398420498051641,84007533,
-0.07926267385482788,-0.2712734341621399,0.6007756679792636,94720442,
0.4492127299308777,0.3948320746421814,0.7140222101694799,103970009,
0.1584528088569641,0.2587686777114868,0.6596711089221831,114230120,
-0.2235850691795349,0.6965238451957703,0.5316034845135281,127067594,
-0.5520610213279724,-0.21950387954711914,1.005894379180373,133944852,
0.139997661113739,-0.47052001953125,0.704984527034354,143972290,
0.14163124561309814,0.7562496662139893,0.6912616945285939,154061771,
-0.1497046947479248,0.5621874928474426,0.6717387065557519,164019995,
0.08847153186798096,0.011770308017730713,0.6131432406441897,174668569,
0.1537684202194214,0.1813502311706543,0.689053898656093,184006975,
-0.1673298478126526,0.056114792823791504,0.6438420503349512,194122285,
-0.46936237812042236,0.8107719421386719,0.5074712156186157,206973946,
-0.27851665019989014,0.2543717622756958,0.91545684439195,214107349,
-0.05074954032897949,-0.6304084062576294,0.6705449538444465,224086700,
0.4166686534881592,0.26584142446517944,0.684786103993583,234073759,
-0.06477111577987671,0.21502447128295898,0.6884661850425422,244064574,
-0.44014984369277954,0.2930612564086914,0.619045513440827,255076990,
0.11059188842773438,0.3487715721130371,0.7414198872932972,264067078,
0.10443663597106934,-0.22192883491516113,0.654203087751449,274079483,
-0.046143531799316406,0.721365749835968,0.5175326606424576,286660632,
0.03861910104751587,0.47968924045562744,0.8899487374192276,294070105,
-0.12898343801498413,-0.2225550413131714,0.6701320058807746,304123432,
-0.36615467071533203,0.39194148778915405,0.6757689147033853,314078623,
-0.14219486713409424,0.3297837972640991,0.6663534555603672,324125568,
0.25597530603408813,0.14382684230804443,0.6369569562954869,334766559,
0.08415937423706055,0.1255943775177002,0.727431605839383,344095602,
-0.26176148653030396,-0.11499965190887451,0.6563428842385629,354407747,
-0.2594371438026428,0.5910710096359253,0.5304495042768181,366947519,
0.32149869203567505,0.6164410710334778,0.8992240988354626,374141283,
0.21973145008087158,-0.0950477123260498,0.6548915928115225,384162092,
0.38816922903060913,0.2502133846282959,0.6746848929671958,394197109,
-0.22466307878494263,0.28280138969421387,0.6907690895124662,404229925,
-0.758600652217865,0.29747074842453003,0.655320059344712,414861783,
-0.24716824293136597,0.21430355310440063,0.733023855604874,424286199,
0.48702412843704224,0.43758994340896606,0.6754087628048148,434454650,
0.35523444414138794,0.8272342681884766,0.5309861783576155,447105382,
-0.12235742807388306,0.14749258756637573,0.8897797621160677,454345936,
-0.009335696697235107,0.045008301734924316,0.6358468459478283,464333820,
-0.00502389669418335,-0.0909687876701355,0.6199377308557422,474612069,
0.04361379146575928,0.43764233589172363,0.6630630517546017,484327092,
-0.5116738080978394,0.5586977005004883,0.6052608440443575,495019503,
-0.311867892742157,-0.5980048775672913,0.6853726184140114,504416309,
0.31889045238494873,-0.22464478015899658,0.6553763487061047,514360773,
0.20283973217010498,0.7651500701904297,0.5196336109846876,527032953,
-0.08215212821960449,0.33633899688720703,0.8877782681071751,534429883,
-0.1020958423614502,0.17888450622558594,0.6559443903374766,544424608,
-0.056663334369659424,-0.0977468490600586,0.6560912603444073,554435437,
-0.23263412714004517,0.46420979499816895,0.664843140579443,564412952,
-0.142056405544281,1.0166804790496826,0.6198193664219831,575130007,
-0.26771122217178345,-0.10348814725875854,0.7207221449501972,584411230,
0.48653459548950195,-0.41034865379333496,0.6863242550645591,594470727,
0.0961381196975708,0.5046834945678711,0.5577352653843559,607001365,
-0.21885091066360474,0.4426426887512207,0.9238790536231551,614440226,
0.0655478835105896,0.4577333331108093,0.6710690413100475,624473125,
0.02461642026901245,-0.37869077920913696,0.7406591484049606,633513530,
0.09074974060058594,-0.1259230375289917,0.6201535087172617,644509935,
-0.38152581453323364,1.1996726989746094,0.6766495306878475,654697576,
-0.340060830116272,0.1705394983291626,0.7799124874538819,663526015,
0.21998292207717896,-0.3501330614089966,0.6328880968573823,674570117,
0.13037890195846558,0.2638876438140869,0.5780021539065607,686975078,
-0.005438804626464844,0.6444889903068542,0.9556924283561181,694562479,
-0.3060765862464905,1.0150203704833984,0.7251521788996603,704563711,
-0.13248878717422485,-0.29580187797546387,0.7096495094015057,714611073,
0.11907392740249634,-0.7112606167793274,0.7178131997370415,724582692,
0.021541237831115723,1.0718657970428467,0.706466428799187,734777258,
-0.29951274394989014,0.7654352188110352,0.7190951532010809,744648434,
-0.11088955402374268,0.008964121341705322,0.705707093336789,754630561,
-0.08704185485839844,-0.41685694456100464,0.5685839336968151,767100941,
0.0036896467208862305,-0.3367016911506653,0.9478255128521731,774641392,
0.34583336114883423,1.1827900409698486,0.7081708069173802,784758048,
0.0969083309173584,0.2962227463722229,0.6937825589036665,794753945,
0.22287249565124512,-0.729668378829956,0.6825626552173225,804695637,
-0.11261945962905884,0.28102701902389526,0.6666009402252591,814797406,
-0.22691649198532104,0.7146083116531372,0.6655442160316152,824746218,
-0.2990536093711853,0.5412230491638184,0.6625154375065134,834755475,
-0.0514676570892334,-0.06698036193847656,0.5589524860280535,846714795,
0.32992374897003174,-0.4940495491027832,0.843021482568427,854785544,
-0.2378343939781189,0.7805932760238647,0.6850435038818588,864825181,
-0.48918449878692627,0.8224654197692871,0.7412588787041929,873902876,
-0.5285431146621704,-0.1671430468559265,0.6097809558558279,884833337,
0.2839016914367676,0.05339789390563965,0.6496955992408644,895149698,
0.7437024116516113,0.3139657974243164,0.6865713505800679,904850509,
-0.2642675042152405,0.7771458625793457,0.6575387239999066,914856451,
-0.2659624218940735,0.2258373498916626,0.5533023586786523,926718836,
-0.25279152393341064,-0.5612013339996338,0.9342843105490751,933925752,
0.3427155613899231,0.2278091311454773,0.6816539772124326,943923545,
0.43201154470443726,0.7881783843040466,0.5984007624468949,954980743,
-0.3277694582939148,0.08693951368331909,0.7268443071221649,963922456,
0.07987350225448608,-0.16302037239074707,0.5958879599809462,975001995,
0.1969691514968872,0.08631998300552368,0.6753524081644268,984973993,
-0.020925402641296387,0.7569019198417664,0.6741039931819587,994957229,
-0.052789509296417236,0.6608187556266785,0.56485173003317,6718591,
-0.3546067476272583,-0.387533962726593,0.8054783593087019,14965430,
-0.01738375425338745,-0.10217970609664917,0.6527259677578673,25259304,
0.04151725769042969,0.6423761248588562,0.6762544900181888,35062644,
-0.45668870210647583,0.4920477867126465,0.6479383704836004,45045355,
-0.18480545282363892,0.10825830698013306,0.6363504856881274,55134432,
0.29041212797164917,-0.38123857975006104,0.6432523676791374,65189710,
0.2096659541130066,0.18795126676559448,0.6580544877105777,75117565,
0.10538363456726074,0.8894968032836914,0.5443345949755821,87135874,
-0.34455716609954834,0.0009949207305908203,0.832365369443665,95110577,
-0.256591796875,-0.24926549196243286,0.6733315089825029,105149768,
-0.12305647134780884,0.34488654136657715,0.6736748512419349,115169794,
-0.06368464231491089,0.38317614793777466,0.6686369745280358,125177159,
0.04773503541946411,0.5557844042778015,0.664826945142163,135218468,
-0.34057217836380005,-0.025882184505462646,0.6823921004942978,145181642,
-0.037608206272125244,0.12174540758132935,0.6971859056793115,155208854,
-0.05394476652145386,1.039377212524414,0.6002561602748787,167013499,
-0.25941580533981323,0.2615455985069275,0.8729691759997383,175245935,
0.2808786630630493,-0.14432430267333984,0.7276794699739338,185266434,
0.3808134198188782,-0.013508379459381104,0.7269815809502063,205294316,
-0.10185307264328003,0.8015634417533875,0.6964501966883011,215321135,
-0.42902761697769165,-0.16644072532653809,0.6864302298557009,225310458,
0.0759010910987854,-0.4161907434463501,0.6865659175129234,235367399,
0.280035138130188,0.8208605051040649,0.5953038241794322,247010819,
-0.03827047348022461,0.4650818109512329,0.8497214863592634,255342581,
-0.1076887845993042,0.2225193977355957,0.709646255581452,265596767,
-0.3454062342643738,-0.012286603450775146,0.6101453011330872,277724412,
-0.1116257905960083,-0.004141747951507568,0.9657741832716955,285448311,
0.31309735774993896,1.2823959589004517,0.7268218541926532,295517676,
-0.16899800300598145,0.18539154529571533,0.7979899667064575,304524293,
0.09581971168518066,-0.4578700661659241,0.6499313547021411,315468987,
-0.1280720829963684,0.5317901372909546,0.6737252735723218,325721038,
-0.3274608850479126,0.8345312476158142,0.6667698237919185,335822090,
-0.23114991188049316,-0.17392396926879883,0.6840152678542638,345586585,
0.3618777394294739,-0.910950243473053,0.5531068094684258,358067740,
0.16673147678375244,0.4926157593727112,0.9602066807196546,365651249,
-0.21901071071624756,0.6610078811645508,0.8097693663796588,374558147,
-0.05358588695526123,-0.15798449516296387,0.6960615283404837,384560159,
0.00881350040435791,-0.023026883602142334,0.6240353238648634,395537145,
0.215825617313385,-0.08876591920852661,0.5672874858588067,407389376,
0.18212276697158813,1.022822380065918,0.8042071209955287,415553569,
-0.24022185802459717,0.7549759745597839,0.6256624948665065,425593689,
-0.21133482456207275,-0.4684451222419739,0.49117071555363173,438111551,
0.24095028638839722,0.19357818365097046,0.8435579419176614,445634311,
-0.1665893793106079,0.790004551410675,0.654846506660203,455667019,
-0.42588144540786743,0.46834444999694824,0.6683280755738302,465765591,
-0.19384193420410156,-0.003932535648345947,0.6861215421727006,475734476,
-0.03464770317077637,-0.5706626176834106,0.6218209399048612,486819932,
-0.041787922382354736,0.5190096497535706,0.7938180204890786,495687553,
-0.24359047412872314,1.1746309995651245,0.6942213102915215,505748682,
0.1441819667816162,-0.11960196495056152,0.5489485110476625,518210057,
0.35917794704437256,-0.12355279922485352,0.9158195860025343,525754268,
0.4981434941291809,0.29148638248443604,0.6976888057298154,535772252,
-0.19035547971725464,0.5384119153022766,0.7012277768189067,545840532,
-0.6349639892578125,0.6964776515960693,0.7135909521594755,555793577,
-0.21445930004119873,-0.3307510018348694,0.6194583186628801,567223354,
0.13125455379486084,-0.05525130033493042,0.8318366853698236,575800432,
0.37915366888046265,1.0158605575561523,0.7795103654022091,584891627,
-0.25803905725479126,0.07246100902557373,0.6557363867965676,605848645,
-0.05149435997009277,-0.23319882154464722,0.6785954912658575,615863301,
-0.34739238023757935,0.1454283595085144,0.6866621277048176,625890655,
0.0718889832496643,0.9900900721549988,0.6967178848996076,635888201,
0.10961872339248657,-0.280215859413147,0.6468997256629354,646721656,
0.22640180587768555,-0.7477642893791199,0.7843074072505036,655860225,
-0.28281986713409424,0.4565465450286865,0.7941694591704243,664923774,
-0.4721541404724121,0.603305459022522,0.4991848265928382,679009527,
-0.2699269652366638,0.8080631494522095,1.1666249471509709,684911753,
0.25924479961395264,-0.039148688316345215,0.6145460834505696,695988558,
0.6618249416351318,-0.3380008339881897,0.6859088625739901,706025349,
-0.058352530002593994,1.06646728515625,0.7035457715252944,715945611,
-0.5406293869018555,0.7944962978363037,0.6028096712267067,727425375,
-0.5277844071388245,-0.2994844913482666,0.8108074358432826,735972714,
0.07128369808197021,-0.131064772605896,0.7025843513034357,746027780,
0.6096509099006653,0.20319777727127075,0.5646120386140346,758767009,
0.4424389600753784,0.8931307792663574,0.9881073638501497,766019814,
-0.04438525438308716,0.48116862773895264,0.698708631085325,776074396,
-0.6463811993598938,-0.8690551519393921,0.7040213767997927,786129435,
-0.2713138461112976,0.21205884218215942,0.728664501999611,796072671,
-0.317124605178833,0.7918235659599304,0.6852470184632097,806744313,
0.011499166488647461,0.3544210195541382,0.7949371885769639,816070357,
0.4291084408760071,0.07751578092575073,0.7465847786220199,826148122,
0.09281378984451294,0.6643983721733093,0.753473055893561,846177576,
-0.12223875522613525,1.3969274759292603,0.7230349090945354,856168764,
0.143294095993042,0.12002342939376831,0.6827141790536466,866436140,
0.6724381446838379,0.07604891061782837,0.7116605054628379,876211577,
0.4010816812515259,0.016639232635498047,0.6571568452624648,886692297,
-0.26878541707992554,0.2283245325088501,0.7243637597590807,896231928,
-0.4731862545013428,0.5735882520675659,0.6819420308494075,906322869,
-0.3900206685066223,-0.4654257297515869,0.5353941369462836,919155991,
-0.07083845138549805,-0.307381808757782,0.9826462059930768,926245745,
0.03126126527786255,0.5095133781433105,0.682440393311373,936394477,
-0.2732090353965759,0.21282166242599487,0.6927183764364507,946382166,
-0.0676807165145874,0.589789867401123,0.6982428627481863,956346271,
-0.11658710241317749,0.24351340532302856,0.666805181155527,966803019,
-0.10016852617263794,0.38280409574508667,0.7314685895225047,976379506,
0.2193765640258789,0.8500261902809143,0.6871177323287846,986505497,
-0.18599528074264526,0.011325597763061523,0.5669756574463981,998757661,
0.19196009635925293,0.0824728012084961,0.89676124767081,6553173,
-0.17641347646713257,0.3726755976676941,0.6854774953868721,16688302,
-0.296774685382843,0.25707578659057617,0.7142675849872769,26445339,
-0.20714491605758667,0.4798382520675659,0.7083173159785777,36432304,
-0.014418184757232666,-0.05723685026168823,0.6720253506925259,47196698,
0.6193001866340637,-0.11350792646408081,0.8022105813011695,56445441,
0.07774388790130615,0.563213050365448,0.7402672469994083,66492357,
-0.21901094913482666,0.09914690256118774,0.6033036254102907,78771644,
-0.36730706691741943,-0.12435328960418701,0.9603197009264469,86479359,
-0.24616652727127075,0.4034079909324646,0.7240095443520149,96565555,
0.024835705757141113,0.34632956981658936,0.7177917880132909,106554896,
-0.00390934944152832,0.6392274498939514,0.7118185725244196,116521266,
-0.050530850887298584,0.18419325351715088,0.7028059818402044,126799317,
0.14312177896499634,-0.026938557624816895,0.8533524500955313,135551842,
0.10161727666854858,0.8282133936882019,0.7514838742878712,145597169,
-0.16435348987579346,0.6029738187789917,0.5743413336391266,158751075,
0.009366333484649658,0.1701439619064331,0.9538748389587317,166632494,
0.10040485858917236,-0.09066814184188843,0.7366335056846204,176677348,
0.105823814868927,-0.29345703125,0.7266396011205009,186685287,
-0.025317490100860596,0.7930685877799988,0.7020404498905216,196755052,
-0.9124197959899902,0.5136603713035583,0.6996415807029942,206713721,
-0.17915278673171997,-0.2823598384857178,0.7076607773094876,216748283,
0.6791699528694153,0.16780948638916016,0.7004660892493443,227158658,
0.06196284294128418,0.5665696859359741,0.6136619179511311,239279304,
-0.5056583881378174,0.37671446800231934,0.9871374733303525,246811000,
-0.28739863634109497,-0.2941915988922119,0.7407583674071259,256815095,
-0.5320274233818054,0.44634634256362915,0.7447412607689029,266864770,
-0.19813036918640137,0.7309165000915527,0.7484310930883497,276796469,
0.10618144273757935,0.1785527467727661,0.6996125490104652,287279289,
0.2860010862350464,0.17039525508880615,0.7688078388715746,296861460,
0.27718043327331543,-0.31391340494155884,0.7452166173847272,306817993,
-0.1373656988143921,0.2918044328689575,0.6296652001230151,318764183,
-0.4358823895454407,1.0163649320602417,0.9279354931023728,326847137,
-0.4720844626426697,-0.194923996925354,0.7236187594177605,337099891,
0.15762513875961304,-0.04354655742645264,0.7583707173708379,346965784,
-0.00020307302474975586,0.17733103036880493,0.8436712144971314,355891865,
-0.31374239921569824,0.346207857131958,0.6676160823060439,367215471,
-0.8006271123886108,1.1453560590744019,0.8654731484839446,375930626,
-0.8898863792419434,-0.15346765518188477,0.656077022624608,387191919,
-0.8353180885314941,-0.3557817339897156,0.586350184647608,399357793,
-0.7940875291824341,0.5390781164169312,0.8669785103301095,407142812,
-0.8282580375671387,0.32868027687072754,0.6540824795260775,416996876,
-1.6779670715332031,0.07975530624389648,0.6499592535997838,427020529,
-1.4707648754119873,-0.05482840538024902,0.6706165817934208,436987268,
-0.4532168507575989,-0.13670307397842407,0.6702611747911723,447087938,
-0.2705947756767273,-0.05436664819717407,0.6721019763612935,457059212,
-0.6338261961936951,0.3960825800895691,0.6323948679102962,467092295,
-1.0134356021881104,0.2846113443374634,0.5015160168942192,478998690,
-1.0505813360214233,0.15269750356674194,0.7069716889410848,487047282,
-1.0306322574615479,0.11223459243774414,0.5445904052003833,497074268,
0.014277100563049316,0.513455867767334,0.5278945515841202,507169564,
0.44930827617645264,0.17067652940750122,0.518438477587008,517089798,
-0.1681801676750183,-0.35278260707855225,0.48693831509293395,527134342,
-0.09438419342041016,-0.005668461322784424,0.4895630081661319,537135812,
0.23164451122283936,0.4308795928955078,0.5246616626418871,547156203,
1.142796516418457,0.7535402178764343,0.4772670962203067,559662861,
1.3361674547195435,0.25460946559906006,0.905466964171355,567147809,
1.497261643409729,-0.09718888998031616,0.7274456154208788,577190885,
1.7666279077529907,0.5939992666244507,0.7482228616641944,587198918,
1.2991281747817993,0.3989719748497009,0.7330759816512441,597218996,
0.8338062763214111,0.24559670686721802,0.7099463115380666,607264591,
0.49743711948394775,0.5553070902824402,0.7178921139549242,617200581,
0.40776699781417847,0.15289008617401123,0.7202368907809911,627258166,
0.8407080173492432,-0.06579077243804932,0.6405931804460038,638733112,
1.0997577905654907,0.30197811126708984,0.8581255750184591,647297922,
0.8861839175224304,0.035935163497924805,0.7146998205534141,657441423,
0.19981998205184937,0.17622113227844238,0.7272693277586697,667357281,
-0.20313501358032227,0.3400871753692627,0.7263654358465336,677316744,
-0.06904298067092896,-0.17485690116882324,0.7236859615029467,687329309,
0.19164568185806274,0.46544843912124634,0.7064394189724514,697390479,
-0.06990468502044678,0.7435537576675415,0.6842685674394432,707448234,
-0.3195258378982544,0.07991379499435425,0.605234356385897,718748918,
0.30216848850250244,0.24247092008590698,0.8118227489594843,727368925,
0.6839933395385742,0.008714914321899414,0.7252520053096353,737408283,
-0.056874871253967285,0.5658659934997559,0.738437418236273,747513645,
-0.545588493347168,0.5245835185050964,0.756473697241405,757397587,
-0.6420530676841736,-0.519964873790741,0.7542479463951585,767445891,
-0.21557408571243286,0.22819066047668457,0.7646176224312985,777498105,
-0.26958131790161133,0.6624000072479248,0.770773067836148,787464923,
0.35785573720932007,0.7056829333305359,0.6709415658495966,798778238,
0.22601842880249023,0.6803750395774841,0.8566044786240392,807490352,
-0.28896868228912354,-0.3778753876686096,0.7347815698658111,817670330,
-0.1143273115158081,0.46086573600769043,0.6110534767940954,829974313,
-0.4454251527786255,0.8887409567832947,0.9797504498578404,837548117,
-0.2322031855583191,0.03180140256881714,0.7354127158307789,847609750,
0.6252188682556152,-0.04202425479888916,0.7498389381632279,857547532,
0.515278160572052,-0.2605546712875366,0.8272965522162132,866615154,
-0.015513002872467041,0.24084168672561646,0.6445290955632165,878245413,
-0.3341634273529053,1.0495314598083496,0.7742630070816469,887739732,
-0.5096651315689087,-0.3028685450553894,0.7305792032030353,897778735,
-0.052702248096466064,-0.0326387882232666,0.588923892052986,910378698,
0.40649545192718506,0.5064406394958496,1.0156751398129218,917658024,
0.15965259075164795,0.3273846507072449,0.7355412000656899,927720214,
0.44710320234298706,0.7448134422302246,0.7398062721741359,937675572,
-0.4958433508872986,-0.24545538425445557,0.7284262423534247,947731956,
-0.49326401948928833,-0.033468008041381836,0.6442052397698919,959147233,
-0.10680043697357178,1.2251436710357666,0.8419312789127299,967739562,
-0.3840411901473999,0.4001489281654358,0.7157221741685328,977734531,
0.5923579335212708,0.026254475116729736,0.5853357276522745,990172086,
0.07042646408081055,-0.21446257829666138,1.0927909518460908,997005742,
-0.10943406820297241,-0.005798280239105225,0.7072981395446133,7820768,
-0.4724692106246948,0.9415497779846191,0.7653542241431904,17787298,
-0.479278564453125,0.20676904916763306,0.7489301766981571,27877700,
-0.03404366970062256,-0.2854226231575012,0.6835136624053986,39087724,
-0.28346502780914307,0.29893118143081665,0.8572090624664828,48083307,
0.20448994636535645,0.5508845448493958,0.872116704673642,56964939,
-0.23989421129226685,0.7609066963195801,0.6000950237333268,69910441,
0.11108249425888062,0.2697165608406067,0.959370822052578,78031384,
0.13479191064834595,-0.13577783107757568,0.7820343575425203,88092040,
0.005207479000091553,0.6010153889656067,0.7818539141434514,98108991,
-0.12172305583953857,0.5805771350860596,0.7676060034292324,108129201,
0.1668286919593811,0.07602286338806152,0.695837389266377,118985894,
0.042868077754974365,0.05389159917831421,0.8099403700631175,128142678,
0.03447461128234863,0.7467969655990601,0.7271189480184588,138241814,
-0.12202972173690796,0.6440743803977966,0.5841426727755583,150719056,
0.009164988994598389,-0.19615459442138672,0.9807478469677298,158134425,
0.13574367761611938,-0.17977094650268555,0.7416206523410662,168136652,
-0.32510077953338623,0.07188212871551514,0.7657779332821291,178108247,
-0.033905029296875,0.5795295834541321,0.7567466132704108,188310997,
-0.26593756675720215,0.27222633361816406,0.7039642762354141,199244880,
0.15433335304260254,-0.20513314008712769,0.8580851523217564,208121635,
-0.030981063842773438,0.4348769187927246,0.7558754578705896,218158705,
-0.17786139249801636,0.9700602889060974,0.5876908884794149,231079831,
-0.13751614093780518,0.6790874600410461,1.0727524110201352,238141573,
-0.3033437132835388,0.11164700984954834,0.7600147837457787,248178890,
0.47058767080307007,-0.22201573848724365,0.7275160151871913,258854935,
0.16218984127044678,0.22966843843460083,0.8723486923746531,267930808,
-0.18490618467330933,0.8490392565727234,0.7242332788635837,278853331,
-0.3845548629760742,-0.025495171546936035,0.7825112240659434,288860724,
-0.09107941389083862,-0.36097365617752075,0.8589289138959453,297931526,
0.4565166234970093,0.08406388759613037,0.5964620522923324,310954572,
0.43154793977737427,0.6483296751976013,0.9703347860891758,318883507,
0.042312026023864746,1.0268499851226807,0.8408915022842902,327918027,
-0.27352672815322876,-0.1296723484992981,0.6964283040108867,338885385,
0.01603776216506958,-0.23619425296783447,0.8616161672247792,347893800,
0.12019968032836914,0.5614916086196899,0.7833623573856923,357910998,
-0.032656073570251465,0.782174825668335,0.7861568252215065,367900102,
-0.21447259187698364,0.36432451009750366,0.6954051656213049,379029227,
-0.35646629333496094,-0.4123570919036865,0.6177110784721502,391385812,
0.024079561233520508,-0.08122992515563965,1.168733905968437,397896162,
-0.016998887062072754,1.019339680671692,0.6583040290973089,409242547,
0.16628772020339966,0.5834136605262756,0.749726059273084,418969462,
0.004101693630218506,-0.1483362913131714,0.7365865953701911,428950250,
-0.0005021095275878906,-0.26893186569213867,0.7444674880026592,439041218,
0.1552167534828186,0.1715375781059265,0.7753016051338865,448938760,
-0.09765893220901489,0.9409414529800415,0.7559274773149908,458940775,
-0.27813637256622314,0.1522018313407898,0.6153290054276666,471021651,
-0.30744093656539917,-0.5409711003303528,1.0850109300526771,477930249,
0.23595833778381348,0.498327374458313,0.6785040623576846,488966317,
0.23580074310302734,0.7601938843727112,0.7328006914993,498954746,
-0.2835242748260498,0.7947244048118591,0.7142783425137333,508974462,
-0.11290889978408813,0.08641469478607178,0.6674055050939149,519674908,
-0.053093910217285156,-0.24123775959014893,0.8070363260630875,528958876,
0.25996822118759155,0.5781136155128479,0.770352722025286,539077806,
0.21304285526275635,0.7045771479606628,0.6430485422845078,551035986,
0.007130324840545654,0.08846378326416016,0.9542243892637187,558967196,
-0.1558837890625,-0.2388383150100708,0.7907247683047159,568555752,
-0.13385939598083496,-0.08035951852798462,0.7512875096271642,578720234,
0.17334473133087158,0.9470707774162292,0.7566549004684409,588608322,
-0.028875231742858887,0.9879980087280273,0.6863095939746248,599056246,
-0.06053471565246582,-0.09350061416625977,0.8293513238229394,607592210,
0.1217731237411499,-0.23443549871444702,0.7289642272952962,617611387,
-0.5507667064666748,0.7750952243804932,0.7600461079936759,637687550,
-0.5483940839767456,0.6420279741287231,0.6912850792030925,648775970,
-0.13000524044036865,-0.6089566946029663,0.7764501911631269,658796632,
-0.01881849765777588,-0.3254823088645935,0.813877005163016,668688087,
0.3965134620666504,0.992132842540741,0.881603155474465,677922468,
0.13683539628982544,1.0057803392410278,0.7439022532564891,688693293,
-0.23618406057357788,0.43726009130477905,0.7818847820201242,698733677,
-0.46118950843811035,-0.44818705320358276,0.6161483479519095,711504507,
-0.22564953565597534,-0.11142909526824951,1.0956077976129543,718760769,
0.47479403018951416,1.0900965929031372,0.77653432402813,728792774,
0.1130828857421875,0.6064236760139465,0.7554979615474033,738812222,
0.031000912189483643,-0.31257402896881104,0.7544536258497245,748832203,
0.20887601375579834,-0.15869587659835815,0.7423560475644482,759129958,
-0.04333442449569702,0.10873293876647949,0.7829107356513053,768872205,
0.0749579668045044,0.8611034750938416,0.7418291689482395,778864172,
-0.12795335054397583,0.3353143334388733,0.6659899477352109,789932029,
-0.07363271713256836,-0.5293754935264587,0.8587346397537312,798862857,
-0.014236927032470703,0.22585976123809814,0.7662830446933451,809142963,
0.01570945978164673,0.5369448661804199,0.8031655054096911,818953242,
0.09492319822311401,0.4776689410209656,0.7708258036181839,828979932,
-0.2546159029006958,0.39666610956192017,0.7320298967131184,839314102,
0.021084606647491455,-0.21730577945709229,0.7852391056910324,848963055,
0.37914198637008667,0.8518289923667908,0.751243535473586,858963606,
0.12444007396697998,0.9898127913475037,0.5978367504817733,871348726,
-0.292543888092041,-0.012983381748199463,0.9812987383620438,878997059,
-0.03994840383529663,0.08263742923736572,0.7707265313014579,889030083,
0.06276285648345947,-0.11709332466125488,0.7913736583981401,899066158,
0.3508870601654053,0.07190412282943726,0.7964540933369423,909037464,
0.18766343593597412,0.6469447016716003,0.7735461870533689,919097138,
-0.372145414352417,-0.18139022588729858,0.7801151357892636,929065849,
-0.009616672992706299,0.15885013341903687,0.7765306862057753,939094998,
-0.32044315338134766,0.7420603036880493,0.6463331418322045,951060597,
-0.16340506076812744,0.2737572193145752,0.96642295448461,959135408,
-0.09747970104217529,0.6621420383453369,0.7811481424180744,969211361,
-0.33173292875289917,-0.067482590675354,0.7977840895283901,979253523,
0.36259639263153076,0.12121343612670898,0.8110295769866168,989262355,
0.21379268169403076,0.8050017356872559,0.7959844614196172,999286475,
-0.2138112187385559,-0.001086592674255371,0.7919347033256564,9269144,
-0.1069139838218689,0.5234985947608948,0.7752990016605029,19410586,
0.33077239990234375,0.05063861608505249,0.6411662977961242,31485194,
0.4602016806602478,0.7642720937728882,0.9690584295865919,39363385,
-0.2855973243713379,0.20392876863479614,0.7473673192038034,49363028,
-0.49774569272994995,-0.2541523575782776,0.7521509938027429,59319593,
-0.12984687089920044,0.1073654294013977,0.7658385843406719,69285340,
-0.048510849475860596,-0.17186963558197021,0.7613237889973998,79393971,
0.25039756298065186,0.4089089632034302,0.787456963354052,89283906,
-0.4011162519454956,0.375319242477417,0.76763751986272,99441529,
-0.27948158979415894,-0.07559925317764282,0.6694745147224526,111082493,
0.6163719296455383,0.8026583194732666,0.9519102416835048,119331309,
0.39361703395843506,0.6267717480659485,0.7607048288453445,129612281,
0.03665834665298462,0.4721941351890564,0.799071649860445,139417092,
-0.3784654140472412,0.4097444415092468,0.7931080862193485,149457240,
-0.2865259051322937,-0.16320937871932983,0.810781623417773,159389832,
-0.24448120594024658,0.34068185091018677,0.8110473942647045,169406682,
-0.3999837636947632,0.6233224868774414,0.806858836176491,179427804,
-0.15336990356445312,0.09728407859802246,0.6622639791673772,191555528,
0.021286368370056152,0.23837339878082275,1.027119063528819,199427806,
0.5708444118499756,0.05541008710861206,0.8107086589166705,209492952,
0.6239954829216003,0.24269819259643555,0.6506428202960125,222068960,
-0.09452003240585327,0.7898927927017212,1.0643793349030364,229644396,
-0.5016956329345703,-0.18495875597000122,0.8082509053777343,239534897,
-0.18903863430023193,-0.20803606510162354,0.7970166285007528,249685191,
0.2251049280166626,0.42789173126220703,0.8229339143849276,259517936,
0.392001211643219,0.2891823649406433,0.6614869375874061,271452791,
-0.03680700063705444,0.7835860848426819,0.9439963672880543,279556106,
-0.5322288870811462,0.01291811466217041,0.7402702469501937,289743983,
-0.09983170032501221,-0.15398573875427246,0.6233183258697441,302052254,
0.14447391033172607,0.8138007521629333,1.029786384600984,309614138,
0.21810179948806763,0.4632444977760315,0.7772460851808299,319662070,
-0.019500672817230225,0.45672422647476196,0.7781235469005837,329723056,
-0.4740985631942749,0.12987542152404785,0.7914723859237976,339614361,
0.166226327419281,-0.41799676418304443,0.6675312579511926,351471455,
0.5028095245361328,0.66175776720047,1.0984217137464898,358663554,
0.012394130229949951,0.4567852020263672,0.7008171563776502,369725392,
0.20361262559890747,0.009930133819580078,0.6227494408337928,382167048,
-0.14412552118301392,0.3639618754386902,1.0407501138859603,389724650,
0.01921093463897705,-0.20948845148086548,0.7930565212604767,399734919,
0.0044765472412109375,0.7760338187217712,0.7893879162998446,409747230,
-0.35406625270843506,0.8017789721488953,0.7555235873076601,420036780,
-0.2108510136604309,-0.23989862203598022,0.7135698117207219,431023283,
-0.14335721731185913,0.14861726760864258,0.9156718941971511,439750378,
0.10056650638580322,0.20606380701065063,0.7948926402499101,449807827,
0.21076488494873047,0.5962106585502625,0.623309029826368,462542444,
-0.12607336044311523,0.930869996547699,1.082079219051415,469797680,
0.01035398244857788,-0.5008757710456848,0.7917606796706633,479842621,
0.2940634489059448,0.044498443603515625,0.9066374985863547,488902813,
0.14409774541854858,0.7125825881958008,0.7462611435034061,499888867,
-0.024120092391967773,0.3745429515838623,0.7124298887904572,511097179,
-0.33504074811935425,0.623924732208252,0.8931746295200392,519879377,
-0.32429516315460205,-0.5998150110244751,0.8707497510525805,528920780,
0.19082093238830566,-0.19359779357910156,0.746958203315705,550121177,
-0.03788203001022339,0.40084993839263916,0.7660474572835125,559949428,
-0.39694422483444214,0.11705809831619263,0.748443175862822,570018289,
-0.13885891437530518,-0.13260537385940552,0.7826600696523459,579987163,
0.3007347583770752,0.0852583646774292,0.7431556260294655,591024883,
0.2188611626625061,0.9883472919464111,0.9252617333347773,599976939,
0.1978721022605896,0.3446158766746521,0.7923046222104895,610174100,
-0.11935275793075562,-0.3226170539855957,0.6225878502733141,622997977,
-0.2627596855163574,0.2614477276802063,1.1247720347324162,630022523,
-0.26308727264404297,0.5872038006782532,0.7739390102455758,640081369,
-0.20881253480911255,1.0074652433395386,0.7589900641578513,650118265,
0.16683614253997803,0.1940729022026062,0.7491948583872159,660058214,
0.13752228021621704,-0.5548015236854553,0.652757182265222,671506565,
0.15248209238052368,0.18228411674499512,0.8957216352013188,680095330,
-0.08829605579376221,0.5516613125801086,0.7866148407111921,690143815,
-0.5409679412841797,0.42753827571868896,0.6183435523835525,703072144,
-0.25465089082717896,0.21138441562652588,1.1339736466410788,710165664,
0.3342783451080322,-0.44783562421798706,0.8091949939410777,720195596,
0.574516236782074,0.5036637187004089,0.8071259104016357,730201966,
0.19889956712722778,0.97214275598526,0.7893305177713786,740191307,
0.014877796173095703,0.4361226558685303,0.6920104646232118,751398273,
-0.17839688062667847,0.1748773455619812,0.8574696393116861,760456573,
-0.11747205257415771,-0.05501347780227661,0.8019404259828722,770255791,
0.08194679021835327,0.33853697776794434,0.621838183472643,783006213,
-0.1313556432723999,0.7836928963661194,1.091833600518882,790231393,
-0.2152678370475769,0.20826971530914307,0.7810293195756419,800331485,
-0.28642576932907104,-0.2118811011314392,0.800606280387545,810317417,
-0.022294282913208008,0.05388718843460083,0.8140171753020184,820309429,
0.04266560077667236,0.366483211517334,0.7650699605877579,831079931,
0.03162658214569092,0.6806795001029968,0.8932818652036351,840338559,
0.08598029613494873,0.0206601619720459,0.8118159072127915,850571719,
-0.3855922222137451,-0.32026922702789307,0.6387029840770936,863648258,
0.15183770656585693,0.5691965222358704,1.2328546887750418,870379258,
0.13239485025405884,0.5628998279571533,0.7893201082268647,880763790,
0.040689706802368164,0.379863440990448,0.8281369757057435,890521279,
-0.055344343185424805,0.06923788785934448,0.7808487487021927,900760634,
0.4203609824180603,0.9427676796913147,0.8217710273027179,910394471,
0.3269110321998596,0.5536119937896729,0.7587786692730121,920575533,
0.051951467990875244,0.1898149847984314,0.7648999890147362,930527695,
0.0524439811706543,0.3272089958190918,0.6161276008935115,943036610,
0.16823166608810425,-0.031136751174926758,1.0462170222710685,950537102,
0.1958327293395996,0.36535054445266724,0.767254516329326,960849202,
-0.35893702507019043,0.5415964126586914,0.7947159922336398,970671182,
-0.3293684720993042,-0.059260547161102295,0.7804874445762058,980547802,
-0.14647650718688965,0.32147228717803955,0.7026651485226703,991594100,
0.1369624137878418,0.015739083290100098,0.8734099528768108,570897,
0.3182032108306885,-0.004868447780609131,0.7950989373521627,10628085,
-0.0940900444984436,0.6336550116539001,0.6305167000401644,23442403,
-0.3812856674194336,-0.017680108547210693,1.130275633780147,30595047,
-0.2636321187019348,0.28323936462402344,0.8026412753639115,40808465,
-0.07406246662139893,0.5516011118888855,0.8326222660045418,50712073,
0.006103515625,0.16671574115753174,0.8308690851905955,60645959,
0.29270005226135254,0.9326922297477722,0.7857003797263277,71199785,
0.19009989500045776,0.30872011184692383,0.8718652752753309,80662897,
0.003798544406890869,-0.029363930225372314,0.9153111637647149,89730248,
0.05097562074661255,0.5584724545478821,0.6076244979665919,103408037,
-0.36550241708755493,0.03996545076370239,1.2986766258377784,109712442,
-0.28770238161087036,0.391653835773468,0.7242180178181171,120967122,
-0.09891486167907715,0.2100588083267212,0.8225525364378864,130809067,
0.07873821258544922,-0.437095582485199,0.8180132278941473,140732522,
0.34657400846481323,0.3578907251358032,0.7934702952731165,151043447,
-0.42783504724502563,0.28891265392303467,0.8320789456126744,160812977,
-0.22729146480560303,0.3498992323875427,0.7977829098960574,171034920,
0.1588648557662964,0.7322363257408142,0.6650192353527423,183378416,
0.3572790026664734,0.09391200542449951,1.098108813408031,190833548,
0.2007395625114441,0.43631553649902344,0.8117450517511113,200868301,
-0.2163461446762085,0.6018398404121399,0.8850815617475483,209907934,
-0.34291744232177734,0.1905888319015503,0.7234869315052632,220870042,
-0.12386947870254517,0.11584609746932983,0.760874966234022,231351319,
0.26996827125549316,-0.18737423419952393,0.8368058289800685,240882372,
0.1861802339553833,0.16223973035812378,0.7775509298253097,251153623,
0.11874651908874512,0.960442066192627,0.6667252229104824,263085037,
0.009193658828735352,0.41350609064102173,1.0121228723071158,270957865,
0.05620014667510986,-0.055346012115478516,0.8147363226217458,280954603,
0.44413769245147705,0.19750577211380005,0.8246461821783424,291000987,
-0.18943631649017334,0.11889702081680298,0.8008127720581723,301302896,
-0.03936880826950073,0.5094985365867615,0.7736186599496951,311855759,
-0.23915821313858032,0.08268123865127563,0.8814869613140398,321001763,
-0.06458204984664917,-0.22555392980575562,0.7949393579301699,331139330,
0.19697314500808716,0.5654506683349609,0.6732759661448952,343074087,
-0.07790285348892212,0.4777621626853943,0.9732255786583984,351249135,
0.18378227949142456,0.4141595959663391,0.8155490844302422,361082099,
-0.1482388973236084,0.13394016027450562,0.8151984007468377,371167899,
-0.11499136686325073,-0.15436160564422607,0.8522256234957856,381053392,
0.1209823489189148,0.6642652750015259,0.8391823001780109,391131376,
-0.06202882528305054,0.6633992195129395,0.8268516791147174,401106275,
0.015668511390686035,-0.011542916297912598,0.8101816203670125,411125817,
-0.05929166078567505,0.08087986707687378,0.6580125434687149,423446926,
-0.0069380998611450195,-0.023446857929229736,1.0562636695143912,431149740,
0.11947238445281982,0.7051681280136108,0.7996586184690987,441152315,
0.01521676778793335,0.9271395206451416,0.7696157241664588,451259294,
-0.24359887838363647,-0.10720831155776978,0.791522098162197,461172303,
0.0878363847732544,0.08913689851760864,0.8115661439708276,471222301,
0.30279189348220825,0.17979097366333008,0.8406397412139566,481209263,
0.11256247758865356,0.3438054323196411,0.8208965627567494,491430423,
-0.2575899362564087,0.5711768269538879,0.6594616537552866,503916410,
-0.724584698677063,-0.37391024827957153,1.114863249391562,511259451,
-0.15294933319091797,0.015133500099182129,0.8221732296333546,521270047,
0.39300769567489624,0.6656184792518616,0.8038097050343779,531375871,
0.5047274827957153,0.17736005783081055,0.8053909202370497,541297288,
0.19719266891479492,0.4175341725349426,0.7896371830920565,551394799,
-0.5717971324920654,0.18978393077850342,0.8112857998757411,561316863,
0.06749123334884644,0.3006553053855896,0.8109029992623321,571348763,
-0.2936726212501526,0.04987436532974243,0.8007757821143676,591408446,
0.019828975200653076,0.21882140636444092,0.7814484530491129,601613036,
0.4622191786766052,0.13010156154632568,0.8158811838831088,621418787,
0.24205422401428223,0.43920356035232544,0.8011172246849227,631571474,
-0.08357805013656616,0.17809605598449707,0.8065500544087225,641715191,
-0.4607483744621277,-0.12484931945800781,0.8560952178201727,651477139,
-0.0534437894821167,0.2380427122116089,0.6949929231567937,663652644,
0.2564569115638733,0.06426507234573364,1.0824460159945108,671526060,
0.33103036880493164,0.28162187337875366,0.8394676866925902,681628096,
-0.10507595539093018,0.5196991562843323,0.6780460827995075,693953943,
-0.4931707978248596,0.1405731439590454,1.0833182097463603,701581890,
-0.047095417976379395,0.765544593334198,0.8135693554736615,711581063,
0.15498918294906616,0.3800954222679138,0.8028921594966044,721553840,
0.37179476022720337,0.22680538892745972,0.7939835671443639,731611654,
0.1423993706703186,0.4832892417907715,0.6925973615233942,743231206,
-0.5686790347099304,0.040300071239471436,0.9741584705597152,751619065,
-0.2998918294906616,-0.1087186336517334,0.8184517316142949,761686152,
-0.1833024024963379,0.07028895616531372,0.6632106995468048,774119046,
0.3106876015663147,-0.08048897981643677,1.0904107470332316,781700189,
0.21848881244659424,0.41253918409347534,0.8121409526448381,791768643,
0.024056732654571533,0.22999006509780884,0.7887245028194945,801994148,
-0.04543393850326538,0.6815834641456604,0.8119836232515131,811881745,
0.06556117534637451,0.35980868339538574,0.6796644137216729,823706971,
-0.0822758674621582,0.16603398323059082,1.0125057080427786,831813719,
-0.2553112506866455,0.22567397356033325,0.8403535663085316,841823401,
0.028582513332366943,0.04747796058654785,0.6822264824057458,854330807,
0.5566027164459229,0.6527432799339294,1.1497759410685946,861786248,
0.28500884771347046,0.5626818537712097,0.8378401781354476,871826441,
0.04275977611541748,0.07363158464431763,0.8249348646254381,881853952,
0.11611509323120117,0.30186933279037476,0.8229660260193644,891853268,
-0.0046141743659973145,-0.08629840612411499,0.7146648182397554,903339703,
0.21136730909347534,0.2638816833496094,0.9742578952737962,911832321,
-0.10136044025421143,0.5856834650039673,0.909172454378173,920895449,
-0.2455364465713501,-0.08764326572418213,0.5988291049301705,934620223,
0.07458215951919556,0.12703967094421387,1.1422693751670103,941889647,
-0.08496195077896118,0.1320977807044983,0.8266168555681662,951967599,
0.1608182191848755,0.4383910894393921,0.8298025699351078,962040909,
-0.17859184741973877,1.0004501342773438,0.9318004931412068,970934802,
-0.3690098524093628,-0.1978524923324585,0.6543403843963095,983510681,
0.31134653091430664,-0.008497655391693115,0.985190447620062,991982697,
0.30560415983200073,0.6082988381385803,0.8393178630425819,2029999,
0.11010462045669556,0.3338955044746399,0.6486796278730712,15037633,
-0.28635239601135254,0.5195488333702087,1.2029050489714503,22012513,
-0.4980318546295166,-0.10559338331222534,0.8232740382888798,32066925,
-0.021974503993988037,-0.22486811876296997,0.8277411655060304,42087183,
0.07873380184173584,0.8323283195495605,0.8370382559583969,52066033,
0.1652125120162964,0.22413861751556396,0.7235962049186974,63593352,
-0.15558838844299316,0.04788285493850708,0.9875245122334896,72083208,
-0.42246150970458984,0.2231239676475525,0.8373166496613251,82127731,
-0.0024548768997192383,-0.04963493347167969,0.641205879767077,95327960,
0.2889149785041809,0.9666475653648376,1.2538687341332455,102120996,
0.2091137170791626,0.22946691513061523,0.8399395384338557,112170660,
-0.03276175260543823,-0.4283406138420105,0.8412014412072727,122194105,
-0.1253671646118164,0.6365704536437988,0.8472409954324134,132145678,
-0.07069796323776245,0.25036633014678955,0.7171410895887961,143811032,
0.22794067859649658,0.537606954574585,1.0000852868482932,152171503,
0.06448155641555786,0.4748149514198303,0.8147057627604062,162427536,
-0.009768486022949219,-0.24155408143997192,0.6730442814697032,174993464,
-0.08417952060699463,0.2508162260055542,1.1902859781963986,182224404,
-0.14809691905975342,0.33600085973739624,0.8549629597352333,192255772,
0.07234060764312744,0.39061450958251953,0.8518513241779093,202266963,
-0.33905231952667236,0.7368595600128174,0.8492691864762553,212267093,
-0.3321259617805481,0.03243231773376465,0.7567930596528555,223405092,
0.17289936542510986,0.25361984968185425,0.9615483707723077,232252901,
0.38988327980041504,0.38471168279647827,0.8398058648121498,242450395,
0.2813105583190918,0.16372698545455933,0.6813721808200781,255039971,
-0.37006717920303345,0.4183111786842346,1.1827481438636542,262310727,
-0.3403463363647461,-0.012094318866729736,0.8560098581617975,272337671,
-0.298309326171875,-0.1415010690689087,0.8592005079385922,282387725,
0.17007017135620117,0.32763296365737915,0.8604401403869727,292403934,
0.5361163020133972,0.14085805416107178,0.7886338848538857,303248645,
-0.1186477541923523,0.40813517570495605,0.935715957274242,312355860,
-0.44043195247650146,0.5032313466072083,0.8269946815300154,322653748,
-0.16975754499435425,0.09478718042373657,0.6592400606397711,335670603,
0.23820853233337402,0.4908156394958496,1.2791715841246885,342399154,
0.5071532726287842,0.3534107208251953,0.8468096502344702,352457222,
0.17732763290405273,0.0978386402130127,0.8297272525160618,362561373,
-0.14820939302444458,0.3086177706718445,0.8224635287296478,372645274,
-0.3541656732559204,0.0553208589553833,0.7795558222140654,383218150,
-0.006003975868225098,0.2557533383369446,0.8837613706227928,392507975,
0.30494099855422974,0.32120072841644287,0.8108173004937076,402587667,
0.06260591745376587,0.1739732027053833,0.6608013759901633,414985639,
0.0006798505783081055,0.47301650047302246,1.0935139090769708,422608956,
-0.13080239295959473,-0.0029140710830688477,0.8590134375378524,432591305,
0.13079386949539185,-0.11949145793914795,0.8692170013904691,442635115,
0.18230760097503662,0.5303046107292175,0.8548158629418794,452758738,
-0.10583138465881348,0.07906246185302734,0.7842803994324067,463644993,
-0.17950087785720825,0.15479230880737305,0.9447790833126942,472641647,
-0.21024906635284424,0.32450878620147705,0.8453136093353338,482670101,
0.4998771548271179,0.12105661630630493,0.6848379405103723,495012504,
0.2737158536911011,0.902118980884552,1.0988596581096208,502672079,
0.19562745094299316,0.4580339193344116,0.8420102250697327,512705103,
-0.17296969890594482,0.06417638063430786,0.8581096511628132,522681000,
-0.25180673599243164,0.47087305784225464,0.8595598990792148,532713641,
0.1580304503440857,0.050173938274383545,0.8078773367395286,543462348,
-0.1332520842552185,0.2801855802536011,0.9281597941063578,552764736,
-0.15727055072784424,0.36841922998428345,0.8442637462935043,562859955,
-0.26904529333114624,-0.25558245182037354,0.7038409502191781,574961011,
0.20582395792007446,0.5197227001190186,1.0735374595731717,582839804,
0.31377142667770386,0.18471455574035645,0.9297722995510482,591846198,
0.13081389665603638,0.018101215362548828,0.7615040742443638,602842307,
-0.26784080266952515,0.4921683073043823,0.832796389074563,612889571,
-0.4779837727546692,-0.050531089305877686,0.8224706985305357,623134593,
0.03538542985916138,0.5040779113769531,0.8639296716808074,632968336,
0.16944503784179688,0.38717877864837646,0.8527049713392529,642962246,
0.06807702779769897,-0.18958717584609985,0.6775895086365746,655635810,
-0.06342339515686035,0.713951051235199,1.165017020812884,662969765,
-0.059576213359832764,0.3426573872566223,0.8461493541070405,672961690,
-0.01508784294128418,0.2901785969734192,0.8392888622753439,683003792,
0.011731147766113281,-0.3640793561935425,0.8217066953834772,693266661,
-0.1613612174987793,0.33627331256866455,0.8678168649524847,703154731,
-0.09602600336074829,0.5468458533287048,0.8640448045417116,713208517,
0.13688325881958008,-0.05887109041213989,0.8801731050823624,723137429,
-0.20350420475006104,0.27839040756225586,0.7513521656223823,735004238,
-0.31380414962768555,0.20952826738357544,1.1286400645910148,742989633,
-0.2718275189399719,0.5655015707015991,0.8771280947265889,753294564,
0.2289574146270752,0.7278735041618347,0.9109641770794894,763099427,
0.5941579341888428,-0.19271790981292725,0.8796649837845203,773077393,
0.3938754200935364,0.23387807607650757,0.840736023517934,783531396,
-0.13453543186187744,0.4364745020866394,0.9224122848979455,793099562,
-0.504652738571167,0.2676963806152344,0.8770917948986195,803180868,
-0.3431953191757202,0.2823261618614197,0.74998674471802,814984459,
0.14468902349472046,-0.1614089012145996,1.0779468274357078,823134502,
0.49722421169281006,0.11775588989257812,0.865410692772975,833159449,
0.11478734016418457,0.7108450531959534,0.8437645623621515,843229938,
-0.12576079368591309,0.36326825618743896,0.8204957246925679,853306054,
-0.20271998643875122,0.3024676442146301,0.8279795067740701,863226625,
0.005234122276306152,0.021249711513519287,0.8199015250974309,873328262,
0.14898055791854858,-0.11158484220504761,0.8489306649736916,883262516,
0.018409430980682373,0.6403264999389648,0.7296326496568203,895016865,
-0.3111094832420349,0.267877995967865,1.0393451149281479,903253134,
-0.13596469163894653,-0.05374985933303833,0.8510235263817719,913260795,
0.10970646142959595,0.2371576428413391,0.8473094662519276,923331854,
0.5256428718566895,-0.052023887634277344,0.8518709408429508,933368140,
0.3270725607872009,0.5002480745315552,0.8379143351071606,943424041,
-0.07298153638839722,0.3091031312942505,0.8273025376698115,953363117,
-0.042705655097961426,-0.17721986770629883,0.8321713012562522,963335824,
-0.17204821109771729,0.5293652415275574,0.7035870518788648,975440491,
-0.04759877920150757,0.49823421239852905,0.9962374307224183,984075620,
-0.03191089630126953,0.19836795330047607,0.8568657627496299,994157925,
-0.24614310264587402,0.5323596000671387,0.9274221260669329,3421370,
-0.1485939621925354,-0.2071833610534668,0.8098297606963805,14023836,
-0.07187563180923462,0.5004931688308716,0.8518481109653169,24179674,
0.05122017860412598,0.612890362739563,0.8641515772976678,34092892,
0.06687450408935547,0.041237711906433105,0.8478056629908934,44083614,
0.12169283628463745,0.46729499101638794,0.7722961678762359,55034916,
-0.0734444260597229,-0.08732569217681885,0.9469410398526966,64101296,
0.37486135959625244,0.030141830444335938,0.8836221887985507,74096786,
0.09858238697052002,0.48773616552352905,0.7418890427912258,86007483,
-0.39979034662246704,-0.04223155975341797,1.0854967248076033,94025908,
-0.12504959106445312,0.4483383297920227,0.849123408503265,104199600,
-0.2005460262298584,0.4337935447692871,0.8688485027425076,114069023,
0.4045875072479248,-0.2627500295639038,0.8525293235327844,124190447,
0.2540479302406311,0.6285972595214844,0.8001018948353963,135042428,
-0.33304113149642944,0.3599412441253662,0.9460172367770585,144197232,
-0.3574473261833191,0.19303637742996216,0.8714046591597487,154176284,
-0.6054936051368713,0.4169902801513672,0.7323170039520465,166108710,
0.39504116773605347,-0.34375375509262085,1.1062185183580782,174077475,
0.9077439904212952,0.543812096118927,0.8689868116665088,184219317,
0.4891057014465332,0.7673079371452332,0.8586329176724226,194113151,
-0.23630577325820923,0.09838706254959106,0.8268653175605019,204185037,
-0.43167364597320557,0.25909918546676636,0.7412803871260836,215390080,
-0.2679911255836487,-0.17137426137924194,0.948076967017919,224172901,
-0.4184284210205078,-0.008116960525512695,0.8183814075166767,234375643,
-0.005391716957092285,0.6625040173530579,0.7062366618186955,246213982,
-0.012686371803283691,-0.11222195625305176,1.0379029990733206,254324338,
-0.1353951096534729,-0.16245752573013306,0.8639046551272376,264228697,
-0.08388960361480713,0.1928744912147522,0.857748418445743,274312514,
-0.41111260652542114,0.36591893434524536,0.8794872208524553,284216483,
-0.12037795782089233,1.1064118146896362,0.7643697002225865,295654400,
0.09062498807907104,0.3394402265548706,1.023728948766858,304206496,
0.33325374126434326,-0.1728886365890503,0.9012113013011593,314170855,
0.2892224192619324,0.36651086807250977,0.7332613751313503,326633969,
0.1104540228843689,0.2272571325302124,1.2243954323556518,334136224,
-0.31641513109207153,0.4214460253715515,0.901920055909589,344260702,
-0.4185410141944885,0.4671311378479004,0.9038143354170819,354226119,
-0.12417775392532349,-0.30917322635650635,0.8932741769194041,364259884,
0.33111095428466797,0.2852584719657898,0.8114656677046322,375119746,
0.8053985238075256,0.27222245931625366,0.9303430220093333,384282251,
0.2145717740058899,0.30599743127822876,0.8427420406968941,394203710,
-0.5246939659118652,0.62996906042099,0.6620247972440796,406647842,
-0.5035884976387024,-0.26325392723083496,1.1094251776356192,414194352,
-0.2475007176399231,-0.1837133765220642,0.8498121757016114,424298187,
0.376875638961792,0.43780094385147095,0.8819645524304074,434200622,
0.3675435781478882,0.16630268096923828,0.8620471428295112,444340151,
-0.13006305694580078,0.5271617770195007,0.8123748486581597,455043135,
-0.5678486824035645,0.04632002115249634,0.9355493760645771,464326612,
-0.38313227891921997,0.21201306581497192,0.8804462613093161,474278610,
0.03477072715759277,1.0175199508666992,0.6898281670519798,486986124,
0.45027679204940796,0.24702799320220947,1.2124569231606184,494213192,
0.15489518642425537,0.06412798166275024,0.8593820159556995,504355998,
-0.15072154998779297,0.1794169545173645,0.866419202918509,514318666,
-0.04411381483078003,0.07306945323944092,0.8471598860220574,524414418,
0.1491221785545349,0.5480753183364868,0.7797872765467192,535040595,
0.12998396158218384,0.012649953365325928,0.8489206258561118,544510441,
0.1722959280014038,-0.32366710901260376,0.8095434970234745,554410296,
0.19328796863555908,0.6356860399246216,0.6338639433950319,567323616,
0.12025338411331177,0.14749985933303833,1.1599533667625153,574590351,
0.041457295417785645,0.039932966232299805,0.8623004000020857,584513360,
-0.3144339919090271,0.02929776906967163,0.857269662276085,594590704,
-0.18937474489212036,0.6342988610267639,0.8630382449253093,604713353,
-0.20729345083236694,0.3690863251686096,0.8101241374613575,615467601,
0.25274211168289185,0.04446005821228027,0.9533160259028268,624572169,
-0.109771728515625,0.7465640902519226,0.860280253074769,634680556,
-0.007211089134216309,0.23821580410003662,0.7197354838193216,646676124,
0.041172921657562256,0.0903019905090332,1.1106594970030998,654493671,
0.08861339092254639,0.37582725286483765,0.873074755540421,664570319,
0.13120126724243164,-0.0547676682472229,0.8944537375007852,674545207,
-0.19643354415893555,0.6332042217254639,0.9045670770370032,684540683,
-0.3680291175842285,0.2373901605606079,0.8604434565813354,694987945,
-0.6445706486701965,-0.2285325527191162,0.941998991420623,704477277,
-0.0652971863746643,0.550747275352478,0.8690097778573067,714748597,
0.28917133808135986,0.09394365549087524,0.7003676025944215,727367099,
0.09315699338912964,0.3989226818084717,1.2383249586875484,734414796,
-0.039048194885253906,0.384488046169281,0.8484826467017337,744519250,
-0.3936232328414917,-0.24188989400863647,0.862442733694833,754474392,
-0.1391395926475525,0.5211670398712158,0.869213766706647,764532449,
0.2088497281074524,0.44178152084350586,0.8070204214541535,775407883,
0.46326500177383423,-0.08036589622497559,0.9718571699709032,784505595,
-0.14979135990142822,0.29643940925598145,0.8711319349698003,794678689,
-0.3585960865020752,-0.09956979751586914,0.6871377920346554,807485161,
-0.16272872686386108,0.5080972909927368,1.2562356122693539,814468771,
-0.1293712854385376,0.6152393221855164,0.8609823426370851,824554376,
0.17885035276412964,0.01343756914138794,0.8459844075514874,834672659,
0.23644572496414185,0.43162423372268677,0.8716217066823585,844576062,
0.07424241304397583,0.4117546081542969,0.8310240501709745,855115613,
-0.30449801683425903,0.1243162751197815,0.92934568281806,864693167,
-0.36994725465774536,0.32231611013412476,0.8955064796563763,874649992,
0.07487761974334717,-0.05541789531707764,0.6921623535270004,887376342,
-0.04477733373641968,0.21704471111297607,1.2029988905635924,894622701,
0.2362423539161682,0.5572671890258789,0.8539463102580958,904653137,
0.1975155472755432,-0.31348007917404175,0.8479093530462072,914677548,
-0.042562663555145264,0.125585675239563,0.8595290870091227,924702718,
-0.2744182348251343,0.31887906789779663,0.8081594739082066,935465053,
-0.4623781442642212,0.18673503398895264,0.9414812783920471,944798811,
-0.04113924503326416,0.5483607649803162,0.8697823053383157,954994191,
0.0851360559463501,0.02253514528274536,0.7415402867845816,967043445,
0.29047662019729614,0.18053972721099854,1.1726138817768843,974722401,
0.14575523138046265,0.7349461913108826,0.8885330608559915,984812141,
-0.36911261081695557,0.3981187343597412,0.8850679520644531,994809982,
-0.2457297444343567,0.4867333173751831,0.878094271063952,4811302,
0.2001436948776245,0.1674218773841858,0.8584313380739117,15060059,
0.42595618963241577,-0.38686680793762207,1.0196778046824382,23892132,
0.13953006267547607,0.3605489730834961,0.8312445339552711,34829775,
-0.1950562596321106,0.29362350702285767,0.7214509966959626,47340307,
-0.35825538635253906,0.07849639654159546,1.3718654775943515,53848546,
-0.4326173663139343,0.44823282957077026,0.8905233613801334,63881663,
0.279008150100708,-0.3248910903930664,0.9891513155459793,72900840,
0.6165615320205688,0.6311163902282715,0.7988533272772085,83921457,
0.08955204486846924,0.6367179751396179,0.7534374621994419,95218005,
-0.30585014820098877,0.06208747625350952,0.8636300322804976,104966023,
-0.44502902030944824,0.5499195456504822,0.8441633899393578,114989492,
-0.1922627091407776,-0.018775224685668945,0.6903453588667426,127488470,
0.2218722701072693,0.10836243629455566,1.175110695668201,134957021,
0.17571169137954712,0.5517718195915222,0.8730656598065096,144972674,
-0.1737540364265442,-0.14330649375915527,0.8680399098297051,155029872,
-0.33400338888168335,0.30729442834854126,0.8773752493069561,165003010,
-0.13431626558303833,0.35648345947265625,0.8674692420013798,175043106,
-0.10726028680801392,-0.30173349380493164,0.8800316208802633,185014609,
0.08793127536773682,0.6550266146659851,0.8804558502013058,195003490,
-0.06628596782684326,0.3210076689720154,0.7378397350939022,207051305,
-0.05859792232513428,0.29604876041412354,1.1339191637192079,215028139,
-0.05066657066345215,0.5659149885177612,0.9061122728436255,225095501,
-0.3244819641113281,-0.5376459956169128,0.9057195006149442,235191899,
0.11752504110336304,0.5719471573829651,0.9128964823637624,245112967,
0.15834903717041016,0.8103325366973877,0.8455089586664079,255519909,
0.41543298959732056,-0.14508914947509766,0.9102476685989294,265140260,
-0.05524933338165283,0.19945001602172852,0.8780127135373507,275154633,
-0.24099516868591309,-0.12441802024841309,0.7459626075838504,287087286,
-0.034678757190704346,0.051608264446258545,1.1137283865991414,295146079,
-0.350985050201416,0.8818802833557129,0.8766385242775238,305182278,
-0.3285430073738098,-0.0687406063079834,0.8746065672537817,315198116,
-0.09926140308380127,-0.1762261986732483,0.8882467849606713,325229060,
-0.032529473304748535,0.3537774085998535,0.8784827608440416,335404359,
-0.13981544971466064,0.22201889753341675,0.9108734077379129,345212109,
-0.18919354677200317,0.9600381255149841,0.878401284633861,355278542,
-0.1792823076248169,0.42052072286605835,0.7528368868359977,367091576,
-0.11150914430618286,-0.08822757005691528,1.1286344482108108,375255824,
0.5400584936141968,0.4304352402687073,0.9292155502765705,385292068,
0.2656729817390442,0.05311417579650879,0.9205043206204117,395326407,
0.011873364448547363,0.23866653442382812,0.9003102241350354,405348252,
-0.33469492197036743,0.41088634729385376,0.8746341321485029,415384124,
-0.8555647134780884,-0.2207919955253601,0.8768085468854301,425370424,
-0.0335540771484375,0.3427087664604187,0.8765514841072445,435391337,
0.5526667833328247,0.2155739665031433,0.7109049276243853,447737573,
0.8826236128807068,-0.014015257358551025,1.1540780424681731,455421659,
-0.11430555582046509,0.534241259098053,0.8857834355021322,465490972,
-0.5250061750411987,-0.030162453651428223,0.8829249705091806,475761948,
0.04991787672042847,0.45801055431365967,0.9309117133758618,485694877,
0.6997765302658081,0.08660435676574707,0.9330961441522267,495530224,
0.2852059006690979,0.4678567051887512,0.8919582346629381,505591137,
-0.20465439558029175,0.6400354504585266,0.8869247280288453,515482682,
-0.4558497667312622,0.3134894371032715,0.7291083658364704,527465571,
-0.27048027515411377,0.6681597232818604,1.0966634563849194,535534249,
0.07263451814651489,-0.08732396364212036,0.8937068992364907,545517308,
0.3768370747566223,-0.025172770023345947,0.8973648232859526,555536408,
-0.016560494899749756,0.393379271030426,0.8985618329560683,565577919,
-0.42136162519454956,-0.1885075569152832,0.9021238261974852,575555363,
-0.5296610593795776,0.1255810260772705,0.8875366959241653,585734088,
-0.3389793634414673,0.15961432456970215,0.9122124755651614,595572478,
0.7321377992630005,0.03509390354156494,0.7650502878536611,607075988,
0.5048179030418396,0.9625406861305237,1.016616474845128,615620703,
0.049182116985321045,0.14922064542770386,0.8698981665484935,625656659,
-0.43460947275161743,0.08046126365661621,0.879159795012758,635804856,
-0.44913250207901,0.6165687441825867,0.9093412865349618,645704345,
-0.31812185049057007,-0.10304546356201172,0.889581564348895,655739828,
-0.05107879638671875,0.46031349897384644,0.8789415519567202,665752417,
-0.13284993171691895,0.3547629117965698,0.8682299371134647,675702686,
-0.054350852966308594,-0.13147109746932983,0.7420205232132345,687334405,
0.10574108362197876,0.7865074276924133,1.0364711924467624,695706702,
-0.10220187902450562,0.08991944789886475,0.8630448250786076,705785764,
-0.005915701389312744,0.09673470258712769,0.7056043578845502,718356882,
-0.2581999897956848,0.7370777130126953,1.2099879402646654,725800518,
-0.09227150678634644,-0.19863975048065186,0.910375473883034,735809820,
0.40711915493011475,0.3031119704246521,0.9209971364228083,745819602,
-0.2190253734588623,0.08042430877685547,0.9089660733459044,755825763,
-0.27388209104537964,-0.25104111433029175,0.7607075671396147,767700446,
-0.28439611196517944,0.9633312225341797,1.104504520485394,775826690,
-0.2668376564979553,0.25652384757995605,0.8781644403426784,785865179,
0.396026074886322,0.20730328559875488,0.7060978345462408,798349878,
0.469666063785553,0.5890603065490723,1.5833793822797033,803920520,
-0.05570322275161743,-0.0608140230178833,0.8112740124443562,814912469,
-0.5074011087417603,0.7598385214805603,0.9109479017008641,824922599,
-0.48009806871414185,0.3317241072654724,0.9134019064168664,834922770,
0.30319494009017944,-0.45960062742233276,0.7564944485682786,847088185,
0.5125974416732788,0.27937382459640503,1.0374649324036398,855940098,
-0.05706989765167236,0.011413753032684326,0.8779029012358912,866103379,
-0.4585151672363281,0.4329290986061096,0.6987907929426456,878667238,
-0.4931819438934326,0.8384861946105957,1.1762042349864394,886012512,
-0.11132258176803589,-0.2729846239089966,0.8511662651933352,896076743,
0.3138963580131531,0.3666619062423706,0.8680035778258924,906032389,
0.42402732372283936,0.6621806621551514,0.8688263414303284,916025099,
-0.3442659378051758,0.20671993494033813,0.7957247754283776,927097825,
-0.7880498170852661,0.504366934299469,0.9941360257903263,936066750,
-0.39914989471435547,-0.28615933656692505,0.895530162865868,946119100,
-0.017692148685455322,-0.2389708161354065,0.7092548128090572,959059460,
0.6624480485916138,0.9879106879234314,1.2834718353205612,966143432,
0.4811903238296509,0.13326996564865112,0.8892136059235048,976151447,
-0.0884850025177002,0.12912869453430176,0.8884068192722242,986199007,
-0.3934084177017212,0.21258878707885742,0.9081362448407687,996142399,
-0.43145066499710083,-0.1364714503288269,0.8078443993337976,7429678,
-0.18555700778961182,0.7938284277915955,1.045156326105518,16164039,
-0.2677760124206543,0.5350304245948792,0.8809329654090817,26450511,
0.27364057302474976,-0.06938546895980835,0.7085971766525406,39413160,
0.0015829801559448242,0.4896259903907776,1.3615322999777295,46241135,
-0.31022727489471436,0.1309185028076172,0.9258477775918333,56251140,
-0.09576928615570068,0.46076565980911255,0.9145618872405061,66266170,
-0.08552831411361694,0.6456403732299805,0.9016719529007856,76247006,
0.07148772478103638,-0.08148199319839478,0.8042333269312801,87525214,
0.06628298759460449,0.4294981360435486,1.0612444627941708,96292594,
0.33038538694381714,0.20446139574050903,0.9413355283279159,106302707,
-0.21429449319839478,0.5115986466407776,0.9265927145817627,126320434,
-0.705463171005249,0.08405685424804688,0.8927949926329488,136373886,
-0.6525213122367859,0.49465423822402954,0.8929887821189728,146425271,
-0.0016281604766845703,0.5431301593780518,0.8992850710147328,156382013,
0.6197500228881836,-0.22907590866088867,0.8410206616065015,167093749,
0.344230592250824,0.6306052803993225,0.9786949598794222,176367914,
-0.4255075454711914,0.595179557800293,0.8757391789016647,186707979,
-0.35086292028427124,0.1642988920211792,0.9257369210779388,206441204,
0.5261809825897217,-0.3038622736930847,0.9137758778835289,216445863,
0.8854548931121826,0.24173057079315186,0.896007935980043,226499450,
-0.13063251972198486,0.952532172203064,0.8774836997769493,236479375,
-0.7292478680610657,0.04409492015838623,0.8152342295077057,247128397,
-0.5507485866546631,0.16938912868499756,0.9341432869260796,256498702,
-0.2988414168357849,0.22500336170196533,0.8696578837783029,266676199,
0.5401957631111145,0.15722155570983887,0.6987351427323633,279536789,
0.5318816900253296,0.7692911624908447,1.289845029012811,286530677,
-0.5600643754005432,-0.185655415058136,0.8988385487210648,296574870,
-0.6043596267700195,-0.08243066072463989,0.9038202518240844,306581306,
-0.5513820052146912,0.7216199636459351,0.8939059629731161,316599008,
0.45109522342681885,0.3384857773780823,0.8446621543467225,327054993,
0.882256269454956,0.5465943217277527,0.9007606597186809,336728043,
0.17666834592819214,0.21193480491638184,0.880374120533893,346710625,
-0.3534100651741028,-0.056328654289245605,0.7287047976476277,359137161,
-0.661616861820221,0.45041871070861816,1.2030745905855047,366698255,
-0.14626961946487427,-0.047934114933013916,0.8757823943453473,377074285,
0.06236612796783447,0.5522841215133667,0.9438007875458742,386763666,
-0.066123366355896,0.20543187856674194,0.9011024025304761,396882234,
-0.24925607442855835,0.5400629043579102,0.8566378299896649,407581438,
-0.04874461889266968,0.429545521736145,1.0023832377485826,416738222,
0.21053993701934814,0.1257147192955017,0.913725445224419,426765545,
0.3042442798614502,0.6679309010505676,0.7371229515793245,439141110,
-0.09089183807373047,0.3267204761505127,1.17229274738246,446789324,
-0.39709901809692383,0.020027220249176025,0.8725388164878137,457049219,
-0.2771596312522888,0.2388705611228943,0.9243634364051897,466833198,
0.056995511054992676,-0.12739861011505127,0.9077798961526077,476819171,
0.06039363145828247,0.26608341932296753,0.8778599926929105,487141493,
-0.10951203107833862,0.5826362371444702,0.9267277063913457,496867455,
-0.18160337209701538,0.24776935577392578,0.8851355403414944,507048156,
-0.22658884525299072,0.3574512004852295,0.7431271363205731,519360430,
-0.06767851114273071,0.16097599267959595,1.4217980562759178,525893824,
-0.08835786581039429,0.10536819696426392,0.9248722268158609,535960806,
-0.17197448015213013,0.6553567051887512,0.8320989830394565,547017266,
-0.19338560104370117,0.39185792207717896,0.9091489818907356,556953670,
0.30485719442367554,0.3960205316543579,0.9459359703598603,566448786,
0.4210948944091797,0.4928867816925049,0.8537607011319943,576987102,
0.6354986429214478,0.011670887470245361,0.8987476853676333,587016258,
-0.13142907619476318,0.368014931678772,0.7097488974024133,599664520,
-0.4530603885650635,0.27219223976135254,1.2083926128694205,607021248,
-0.42520540952682495,0.03309071063995361,0.8896285299611075,617050188,
-0.2825263738632202,0.20919084548950195,0.8983219118979445,627088402,
0.20778685808181763,-0.07605862617492676,0.9134324127185627,637078347,
0.10658252239227295,0.1634286642074585,0.9181454427569172,647158327,
-0.5285720825195312,0.6910568475723267,0.9305172297088042,657095504,
-0.6719741225242615,0.16879457235336304,0.9088436398211379,667204893,
-0.40192967653274536,0.7499284744262695,0.7517634189388115,679519804,
0.3281059265136719,0.6174230575561523,1.2434877319478133,687135448,
0.9073373675346375,0.20846891403198242,0.9619330248099001,697197387,
0.4363706707954407,0.43783289194107056,0.9620077843950242,707234751,
-0.4667297601699829,0.049548566341400146,0.9435078880959616,717298279,
-0.3257399797439575,0.21190184354782104,0.9083779632841209,727580709,
-0.4468969702720642,0.4672817587852478,0.953849635097121,737203895,
-0.0865027904510498,-0.13521069288253784,0.9014524799096372,747220554,
0.2657458782196045,0.4438827633857727,0.7461064904723532,759151686,
-0.13033699989318848,0.3881325125694275,1.0887988064264804,767198670,
-0.3735530376434326,-0.06282198429107666,0.8632984433480024,777305576,
-0.9146836996078491,0.3988962173461914,0.8767394866918575,787298078,
-0.929513692855835,0.058215558528900146,0.8822270250873469,797325196,
-0.13800591230392456,0.28001171350479126,0.8878014627340807,807409865,
-0.3275449872016907,0.5050095319747925,0.9030518134051978,817310773,
-0.5335901379585266,-0.19162517786026,0.893936012348084,827325018,
-1.2870995998382568,0.09287840127944946,0.7502522581784645,839138449,
-1.6044576168060303,0.6915490627288818,1.0236919203254065,847381302,
-0.6319916844367981,0.20271927118301392,0.7951519693993575,857478635,
-0.4190196990966797,0.05593419075012207,0.7732417155599844,867425955,
-0.7159231901168823,0.05680757761001587,0.7444933891962802,877398241,
-0.9497151374816895,0.041592419147491455,0.7354617635561159,887429710,
-1.1491879224777222,-0.015545547008514404,0.7359903403347627,897461026,
-1.1379530429840088,0.16658180952072144,0.7338676995522462,907548373,
-0.2351468801498413,0.23236358165740967,0.6150205186840166,919572479,
0.11457502841949463,-0.12157690525054932,0.9098098906912927,927420263,
-0.6155739426612854,-0.25253981351852417,0.6734789256938484,937588015,
-0.7188308835029602,0.3306083679199219,0.6589441677280188,947562308,
-0.7826441526412964,0.33307021856307983,0.624832905986688,957508667,
-0.7480936050415039,-0.0192108154296875,0.5815585809277936,967649058,
-0.3602026104927063,0.12139707803726196,0.5731250266362745,977503531,
-0.3832893371582031,0.22101056575775146,0.531991527960808,987723492,
-0.4959460496902466,0.1910344958305359,0.45654504991019795,999227519,
-0.8846147656440735,-0.1390354037284851,0.6030294702158866,7514108,
-0.6506553888320923,-0.39791709184646606,0.4788472172698829,17607845,
-0.14929276704788208,0.018393337726593018,0.47497547045891697,27617516,
0.06584739685058594,0.27560240030288696,0.46124631993223064,37575569,
0.1657121777534485,-0.18790191411972046,0.4440115050093725,47595066,
-0.035452187061309814,-0.10969126224517822,0.4404877563839608,57599682,
-0.056936800479888916,0.18340224027633667,0.4439420894226516,67672209,
0.06456440687179565,0.36033064126968384,0.39789734184973147,79432255,
0.044686198234558105,0.4036151170730591,0.6097381508404123,87646569,
0.024900317192077637,0.3203069567680359,0.5358555472079498,97708236,
0.36297863721847534,0.35068583488464355,0.565069757006706,107823636,
0.2548688054084778,0.316497266292572,0.598494969845611,117681219,
-0.0935366153717041,0.12914419174194336,0.5937893232505684,127728187,
0.12216705083847046,0.14119774103164673,0.5934238753209007,137705496,
0.6405894756317139,0.21591579914093018,0.6285152884535065,146954277,
0.7311108112335205,0.2645394802093506,0.4814871032375233,159171128,
0.6892455816268921,0.0385323166847229,0.7125507687152224,167747175,
0.7836559414863586,-0.18897056579589844,0.6416755633174026,177810794,
0.6970041394233704,0.36716336011886597,0.6806819958238274,187835046,
1.0354771614074707,0.6520837545394897,0.707647539657008,197837172,
0.8534780144691467,0.1880401372909546,0.737925188161581,207825496,
0.5161981582641602,-0.2732928991317749,0.7611168961029162,217863880,
0.6139156222343445,0.4642260670661926,0.8508081473919232,226966806,
0.4779393672943115,0.9920718669891357,0.604693687746708,239784512,
0.5925396680831909,0.17662382125854492,0.9355188323275421,248088110,
0.575121283531189,-0.42628419399261475,0.8638375241880669,257253402,
0.3203500509262085,0.96640944480896,0.6266515670410544,270319588,
0.28677624464035034,0.2456272840499878,1.0905728754440676,278102927,
0.3871442675590515,0.28029006719589233,0.8855104530198769,288079286,
0.560212254524231,0.4083332419395447,0.8968721752413845,298425876,
0.7730311155319214,0.22441619634628296,1.1144626394430466,307104707,
0.24752628803253174,0.5739555358886719,0.7899144622483552,319518202,
-0.02535635232925415,0.3115215301513672,1.1323042890010284,328083697,
0.35660845041275024,-0.11187034845352173,0.9619990921071276,338126091,
0.33512187004089355,0.555641233921051,0.7805718693631699,350571406,
0.6946572661399841,0.15636849403381348,1.286700674562306,358096660,
0.6197437047958374,0.12451481819152832,0.9463089292736652,368162362,
0.17500853538513184,0.5469685792922974,0.9275386765757606,378102234,
-0.021182477474212646,-0.04380112886428833,0.8910913964772107,388139713,
-0.0630912184715271,0.4103142023086548,0.794055463961644,399254675,
-0.13255161046981812,0.3424648642539978,1.0002851575742095,408168473,
0.22504734992980957,0.0013980269432067871,0.9179705584494147,418177528,
0.28739112615585327,0.6053248047828674,0.7133654246115045,431304182,
-0.6935687065124512,0.2706437110900879,1.3701571253692415,438191600,
-0.34998536109924316,0.36311984062194824,0.9528133824751351,448208770,
-0.19168895483016968,0.551013708114624,0.9598286593460733,458203518,
-0.1568455696105957,-0.19072437286376953,0.9579027646479394,468235241,
0.2948896288871765,0.5197411775588989,0.8746645111705001,479245507,
-0.47510331869125366,0.5427224040031433,1.0643234181451953,488241991,
-0.3364080786705017,0.408735454082489,0.9520705679536854,498305871,
-0.3343619108200073,0.5554486513137817,0.7548255743309705,511027294,
-0.25850868225097656,-0.3692573308944702,1.3014632646516675,518373167,
0.5711301565170288,0.4784203767776489,0.9575346374307389,528315470,
0.21436983346939087,0.9211879372596741,0.9351824815156963,538328153,
-0.028720438480377197,0.00892406702041626,0.9142570936929045,548487278,
-0.2199144959449768,0.2718312740325928,0.8255944836041585,559846606,
-0.3941972851753235,-0.0817110538482666,1.1172544207568658,568320841,
0.025748372077941895,-0.048930823802948,0.9277075584672382,578695960,
0.09224134683609009,0.7810993194580078,0.7578451721366701,591373620,
-0.04563736915588379,0.2736167907714844,1.337572391652551,598428500,
-0.20805984735488892,0.12214064598083496,0.9442484186771671,608438285,
-0.3166350722312927,0.3026019334793091,0.949563392335263,618433573,
-0.016105473041534424,0.23135137557983398,0.9228215504693656,628713040,
0.4809631109237671,0.9267356991767883,0.8772817114326071,639455047,
0.3020172715187073,0.3875041604042053,1.0273967443776393,648485663,
-0.1466890573501587,0.09764927625656128,0.9207585843336394,658585550,
-0.06639105081558228,0.5218640565872192,0.7301238043391637,671437931,
-0.3572885990142822,0.1399877667427063,1.3372738391438177,678509117,
-0.175448477268219,0.13467752933502197,0.9492791878945168,688527702,
0.24186468124389648,0.3139878511428833,0.9385383620155797,698567206,
-0.04652482271194458,-0.05410057306289673,0.9346989738148108,708544640,
-0.07797324657440186,0.749034583568573,0.861293826157875,719336352,
-0.18645399808883667,0.49709928035736084,1.00765401339542,728564544,
0.04754757881164551,0.14669543504714966,0.9307612634420919,738664041,
-0.24642413854599,0.0934607982635498,0.9429601778997759,758759463,
-0.0681687593460083,0.3673778176307678,0.9665038462954068,768639623,
-0.3768078088760376,0.3537968397140503,0.9552235427398165,778646532,
-0.3538277745246887,-0.14118975400924683,0.956317986910221,788666794,
0.1972929835319519,0.5714221000671387,0.882744917925356,799557908,
-0.04969894886016846,0.5577375888824463,1.0574734323485184,808680636,
0.10488569736480713,0.4452870488166809,1.052439718560839,817901316,
0.12417173385620117,0.6252277493476868,0.7157836503402216,831406857,
-0.09359496831893921,0.10636907815933228,1.319682168533482,838727627,
-0.15860974788665771,0.3407195806503296,0.9479557987249254,848852495,
0.026915907859802246,0.2938110828399658,0.9561928723908103,858742895,
-0.14812839031219482,-0.19566041231155396,0.8932168475665699,869276721,
-0.10125452280044556,0.5377501845359802,0.9293702464658612,879408399,
-0.18074017763137817,0.4121053218841553,0.9603233986937594,889315238,
0.04088777303695679,0.23015153408050537,0.9563603202398738,899400056,
0.19582706689834595,0.6726585030555725,0.7884503858743419,911681162,
-0.07902419567108154,-0.1624603271484375,1.2741171966917706,919290089,
-0.3257395029067993,0.38939666748046875,0.9694608247108569,929352424,
-0.1284184455871582,0.7225104570388794,0.9831141988929268,939329347,
-0.28849709033966064,-0.03535717725753784,0.9886365879268991,949309449,
0.095450758934021,0.44144105911254883,0.9617090164241907,959516303,
-0.14843153953552246,0.17107146978378296,0.9846153400025058,969321962,
-0.16395264863967896,0.25746452808380127,0.959520958636334,979342147,
0.09555459022521973,0.9780029058456421,0.7671765435298844,991751692,
-0.21877485513687134,-0.002227962017059326,1.2703745325114209,999379802,
0.2641505002975464,0.24602150917053223,0.9955990588133061,9325315,
0.01067286729812622,0.43962323665618896,0.9878274283099217,19355292,
0.06721323728561401,0.03123939037322998,0.9807470607607851,29371867,
0.04691112041473389,0.7028051614761353,0.9661213169683085,39417106,
-0.517014741897583,0.11816811561584473,0.9724096115131363,49333086,
-0.321477472782135,0.03618746995925903,0.9602863551671319,59378642,
0.14568322896957397,0.8133816719055176,0.77925858295834,71544693,
0.6516376733779907,0.08612078428268433,1.1950869948176512,79381329,
0.2818456292152405,0.3290475010871887,0.9217202823821683,89434593,
-0.035488128662109375,0.3917968273162842,0.9282784266104925,99485290,
-0.4676160216331482,0.03454160690307617,0.9529243645135341,109457290,
-0.47726643085479736,0.485812246799469,0.9357096959912778,119538095,
-0.04662513732910156,0.13488835096359253,0.9411019716357145,129417675,
0.5566554069519043,-0.1007491946220398,0.9256968589717419,139519046,
0.12462764978408813,0.6172834038734436,0.7817590919959588,151445806,
-0.5072978734970093,0.33330416679382324,1.1358304712032716,159572509,
-0.2093181014060974,0.4613514542579651,0.8982614581870897,169804035,
0.5479121804237366,0.04277259111404419,0.9235493738186169,179745434,
0.8150671720504761,0.4817177653312683,0.9482481437233125,189614095,
0.17126601934432983,0.4805063009262085,0.9466593345312059,199704684,
-0.6149219870567322,0.18538695573806763,0.9702330480823014,209666507,
-0.35463494062423706,0.44005662202835083,0.9651944487282915,219680599,
-0.2959839701652527,0.0981094241142273,0.8006026441258679,231700409,
-0.009882092475891113,0.2591626048088074,1.2062326004826798,239590778,
0.4255879521369934,0.655622661113739,0.9263050443077759,249680741,
-0.029204130172729492,0.17320042848587036,0.9427699074126682,259487534,
-0.25619202852249146,0.41431301832199097,0.9240803456859403,269588631,
-0.12078636884689331,-0.00018292665481567383,0.9404284902103113,279601004,
-0.3799014687538147,-0.35360467433929443,0.9639907391582383,289603520,
-0.04036051034927368,0.4768359065055847,0.982848573016922,299771323,
-0.08577072620391846,0.4230278730392456,0.8489278640033172,311587129,
0.2572493553161621,0.21562105417251587,1.2500570245076987,319565223,
0.12465322017669678,0.49836117029190063,0.98959408049275,329583930,
0.13100814819335938,0.3428839445114136,0.9647554924244761,339692759,
0.07047593593597412,0.9338648915290833,0.973127766910786,349624593,
-0.005109310150146484,0.6035043597221375,0.9432906237613414,359638215,
-0.12748348712921143,-0.1242595911026001,0.9446957537275206,369582682,
-0.12103486061096191,0.3946989178657532,0.9467564206270185,379613055,
0.12490707635879517,0.1442278027534485,0.813885281178223,391415755,
0.11208921670913696,-0.057007789611816406,1.1930905279270845,399650149,
-0.2403847575187683,0.34140074253082275,0.9828927819469672,409638557,
-0.034636735916137695,-0.08786541223526001,0.9578020024712708,419674478,
-0.02531588077545166,0.7811541557312012,0.9511175159503815,429630367,
0.16630291938781738,0.5516238808631897,0.9385412150379251,439680998,
0.1870608925819397,0.031399548053741455,0.9582278125601592,449648571,
-0.07042920589447021,0.7316174507141113,0.9787258286463598,459641546,
-0.30659055709838867,0.42248034477233887,0.788176335281037,471971156,
-0.30997395515441895,0.32798153162002563,1.2667162824577562,479650424,
-0.12541860342025757,0.47130680084228516,0.9650838489241507,489801650,
0.051463425159454346,-0.14879196882247925,1.000143247550057,499735525,
0.26180005073547363,0.512009859085083,1.0120690345826056,509734977,
0.029504120349884033,0.5281410217285156,1.0035907800114625,519739733,
-0.22976505756378174,-0.06424206495285034,0.9917805427794104,529717466,
-0.20655179023742676,0.5885230898857117,0.9841799687752492,539729272,
0.011961817741394043,0.1280948519706726,0.8285815447482857,551716227,
0.44518059492111206,0.18824464082717896,1.2573584625010195,559730881,
0.28682172298431396,0.41767847537994385,0.9680018406501704,570051985,
-0.13366013765335083,-0.26900994777679443,0.992893755853311,579875669,
-0.4225083589553833,0.8456113338470459,0.9542739780527631,589962067,
-0.3856639266014099,1.075709581375122,0.9684262736957967,599857048,
0.24204516410827637,0.12353408336639404,0.9730290009806262,609818565,
0.5126630663871765,0.2424125075340271,0.9765054552725034,619825996,
0.3299325108528137,-0.1391087770462036,0.8387252810821538,631441155,
-0.09970879554748535,0.2885836958885193,1.1580858359376867,639867351,
-0.8150206804275513,0.757884681224823,0.936696018044457,650222845,
-0.4381963014602661,-0.14002925157546997,1.003740514895617,659890845,
0.2039581537246704,-0.006439924240112305,0.9550751164437891,670156764,
0.4347631335258484,0.21515542268753052,1.1134527491418384,678929668,
0.47320884466171265,0.281751811504364,0.9674184993703325,688919011,
-0.2930809259414673,1.007318139076233,0.9481131601452882,698902341,
-0.49573713541030884,0.4542534351348877,0.7289572397896744,711703869,
-0.5765446424484253,0.12235116958618164,1.1433881849913348,719962061,
0.0062615275382995605,0.4281189441680908,0.9521856527676658,729997523,
0.17525994777679443,0.43444764614105225,0.959345479115267,750217724,
-0.24938207864761353,0.3749997615814209,0.9788206068149106,760028055,
-0.48388081789016724,-0.12088137865066528,1.0639673657982416,769086202,
-0.2021702527999878,0.6586071848869324,0.9716664476259894,779058338,
0.508430004119873,0.42654144763946533,0.7678229995946287,791735887,
0.9956454038619995,0.09115254878997803,1.1711859552335617,800078177,
0.4370173215866089,0.39971667528152466,1.077144938306864,809100025,
-0.4983696937561035,0.06969308853149414,0.6767321661704514,823366160,
-0.5771023631095886,0.46401745080947876,1.4348649650233651,830094868,
-0.6927539110183716,0.47131508588790894,0.9587592056190687,840159207,
0.020022571086883545,-0.18941998481750488,0.9635635241113245,850181260,
0.9557117223739624,0.3259093165397644,0.9564175211034954,860272298,
0.3518645167350769,0.43862468004226685,0.9011730448905189,870993826,
-0.3034983277320862,0.4770811200141907,1.0569413249778747,880170640,
-0.49597615003585815,0.7252209186553955,0.9653097275212137,890309863,
0.5747799277305603,0.18399578332901,1.0110879916954665,910315464,
0.6851121187210083,0.5144267678260803,1.0128902339754573,920274930,
0.31152403354644775,0.035701632499694824,0.9941372926529332,930277452,
-0.3266184329986572,0.6418779492378235,0.9768539140407985,940354299,
-0.7216272950172424,0.23441219329833984,0.8836287940630847,951440377,
-0.2682521939277649,0.4104449152946472,1.110063030370222,960246084,
-0.06938588619232178,0.77189040184021,0.9586901802543815,970285136,
0.47154510021209717,-0.2983870506286621,0.7064853519170312,983819565,
0.04800593852996826,0.28923720121383667,1.4711699722362315,990354060,
-0.5249183773994446,0.6136324405670166,0.9646144211752256,371111,
-0.38673365116119385,0.003786921501159668,0.9720885227762668,10436243,
-0.09925246238708496,0.4948672652244568,0.9682756817085689,20535795,
0.4115203619003296,-0.11136561632156372,0.8671619605193328,31794573,
0.7855832576751709,0.062028348445892334,1.1217495639986312,40505362,
0.2159389853477478,0.9995344877243042,0.9430031004578322,50787402,
-0.5038458704948425,0.37619835138320923,0.7552691851526685,63754945,
-0.5038458704948425,0.37619835138320923,1.610002875287361,69934615,
-0.04366391897201538,0.09598642587661743,0.943397393667018,80577227,
0.5373381972312927,0.8748627305030823,1.0025760400220565,90675475,
-0.06622552871704102,0.15673625469207764,1.0202512508104096,100550804,
-0.21168863773345947,-0.03459799289703369,0.8627659357710381,112231963,
-0.32284849882125854,0.9474679231643677,1.2266344280676005,120487032,
-0.30405616760253906,0.2466467022895813,0.9970474748019832,130531572,
0.27600836753845215,0.3560510277748108,0.7539387508487216,143699700,
0.5831936001777649,0.18531346321105957,1.4430093631615095,150546106,
0.16548222303390503,-0.1704399585723877,0.9973223753111573,160573376,
-0.2698676586151123,0.6293314695358276,1.0223674752217857,170606650,
-0.4544224739074707,0.09011185169219971,1.0282442316733569,180596999,
-0.057085514068603516,-0.08606481552124023,0.9465079726737178,191406620,
-0.021204888820648193,0.531316876411438,1.1020476292967412,200621460,
0.1326466202735901,0.19839388132095337,0.9884921482139796,210645120,
0.1207612156867981,0.7171894907951355,0.7641755984066055,223378533,
-0.12222981452941895,0.4094616770744324,1.3189857806290268,230647786,
-0.10374242067337036,0.10753685235977173,0.9441232390979867,240734650,
0.15615838766098022,0.5810075998306274,0.9657476480916782,250734206,
-0.340492844581604,0.23634856939315796,0.9842978036212676,260719945,
-0.3387981057167053,0.11082851886749268,0.9355494420402488,271419584,
0.05501103401184082,0.4739340543746948,1.0888426416024657,280727189,
0.08204716444015503,0.04032963514328003,0.9953652296221918,290958530,
0.2396286129951477,0.39199721813201904,0.8508739310434336,302927645,
0.1455230712890625,0.4453641176223755,1.2721513586321156,310791049,
-0.09170544147491455,0.313395619392395,0.9702258713010697,320866052,
0.09041064977645874,0.5529817342758179,0.9621771954699537,330885069,
0.008821666240692139,0.1365552544593811,0.970104032605696,340833588,
0.23615020513534546,0.08605974912643433,0.9132718496582876,351634329,
0.167242169380188,0.4375838041305542,1.0832798971663855,360854873,
-0.05656355619430542,0.21250444650650024,0.985467036702655,370870599,
-0.15202361345291138,0.4203161597251892,0.7512842332827814,383725783,
-0.14886349439620972,0.34058040380477905,1.3265351307063604,390880472,
-0.02338331937789917,0.05100172758102417,0.9462327192286349,400978884,
0.4325183033943176,0.3305550217628479,0.9732220654955095,410944290,
0.07559609413146973,-0.0061730146408081055,1.0905249565696653,419921532,
-0.3084338903427124,0.1181938648223877,0.828093377031903,431800674,
-0.34444499015808105,0.6271908283233643,1.072356064168518,440963795,
-0.2999107837677002,0.1421322226524353,0.9903422666337752,450987100,
0.3798503279685974,0.3633546233177185,0.8079720366563299,463505327,
0.2821163535118103,0.3873751163482666,1.3558887163083615,470988504,
0.060047149658203125,0.21831601858139038,0.9799268094295053,481258794,
-0.17262715101242065,1.0822762250900269,1.0052921678426094,491093549,
-0.4632323980331421,0.42129719257354736,0.9793819779983837,501089985,
0.015485763549804688,0.22827959060668945,0.9510982907994482,511512885,
0.33880525827407837,0.2593948245048523,1.0529089987065545,521084327,
0.5589815974235535,-0.21385526657104492,1.1255457235847575,530113598,
0.05869090557098389,0.175584077835083,0.8196546034857742,542402342,
-0.4572763442993164,0.22977668046951294,1.132853142733997,551129840,
-0.6075122356414795,-0.12271034717559814,0.9830241290724918,561160477,
-0.13543224334716797,0.6718151569366455,0.9841507439813708,571188311,
0.695309579372406,0.06455504894256592,0.9909028843304187,581137498,
0.768301784992218,0.052204251289367676,0.9327854409722234,591719766,
-0.03886300325393677,0.8191689252853394,1.033056612583317,601180467,
-0.4985874891281128,0.11516112089157104,0.9638026384858314,611305512,
-0.5578869581222534,0.6159191131591797,0.782937925815307,623841940,
-0.4456503391265869,0.24521547555923462,1.3341744882635709,631223757,
0.24643093347549438,-0.2842645049095154,0.9945767214266602,641287580,
0.5878453254699707,0.8949574828147888,1.011960757939158,651269310,
0.0915115475654602,0.5591408610343933,1.0048406995756223,661251032,
-0.2701115012168884,0.3222019672393799,0.9717906720532861,671522919,
-0.3700747489929199,0.31174248456954956,1.018103221179604,681288930,
-0.5462571978569031,-0.2722049355506897,1.000949350156733,691349686,
0.20303350687026978,0.3043302297592163,0.8149532499938009,703751202,
0.2887895107269287,0.37720197439193726,1.2899274133267855,711519452,
-0.05746370553970337,-0.06056874990463257,1.0169061756816435,721390033,
-0.19483667612075806,0.4705926775932312,1.0012903989211583,731398528,
-0.3931868076324463,0.24348342418670654,1.0035709763354412,741353652,
-0.297041654586792,0.5100201964378357,0.9558113685567458,751842785,
0.2858808636665344,0.7359047532081604,1.0499922814389948,761377348,
0.4180469512939453,-0.11265319585800171,0.9995415366251443,771451116,
-0.08677011728286743,0.29455381631851196,0.8488470428125993,783427322,
-0.17854291200637817,0.3087558150291443,1.272645734112538,791424529,
-0.1893025040626526,-0.04268085956573486,0.9974822149833878,801629042,
-0.07042008638381958,0.4219065308570862,1.0150203247268736,811535732,
0.36708998680114746,-0.039629578590393066,0.9966584012854613,821445315,
0.49548959732055664,-0.09116816520690918,0.969839027647964,831463782,
0.10265713930130005,0.7827819585800171,0.9563944651923028,841472906,
-0.031754493713378906,0.4298631548881531,0.9293079092513133,851806063,
-0.2309003472328186,0.386599063873291,0.8408150707013236,863417180,
-0.33621519804000854,0.20275115966796875,1.2187753065305602,871540860,
0.03091198205947876,-0.1691916584968567,0.9834216930383274,881713756,
0.19747132062911987,0.49275434017181396,1.0049141251237794,891630772,
0.09095358848571777,0.4986025094985962,0.9898784003712361,901607322,
-0.29929041862487793,0.0794629454612732,0.9836053305245105,911641010,
-0.20469892024993896,0.4598041772842407,0.9925640571661727,921596218,
-0.07698255777359009,0.07918566465377808,0.98243718976673,931740887,
0.11852288246154785,0.3091083765029907,0.8990417177202218,942898545,
0.6256040930747986,0.5849801301956177,1.1330818726344525,951744917,
-0.32339560985565186,0.3926137685775757,0.9700576425475768,962105601,
-0.39579057693481445,0.037428200244903564,1.0287014486270218,971853308,
-0.09849351644515991,-0.14900577068328857,1.002554299946424,981862384,
0.384207546710968,0.5893290042877197,1.0132856793509484,991828033,
0.45896440744400024,0.09705495834350586,1.0174509293541365,1696413,
0.05649465322494507,0.483625590801239,0.9870585952053018,11781298,
-0.4835556745529175,0.6840806007385254,0.8569643311657521,23420738,
-0.26638293266296387,0.011072933673858643,1.2120296401200545,31743762,
0.1648324728012085,0.4945445656776428,1.0235452343554399,41797484,
0.4454200863838196,0.2597752809524536,0.8293511325017726,54344789,
0.3292433023452759,0.014881789684295654,1.3910412271205461,61814477,
-0.17324024438858032,0.5950375199317932,1.1316944858625495,70902945,
-0.3723072409629822,0.1507306694984436,0.9233347980123879,81840928,
-0.2829381227493286,0.5532904863357544,1.1029200984339962,90910480,
-0.2999263405799866,0.5351570248603821,0.7837127407842113,103577781,
0.3481298089027405,-0.44951027631759644,1.1918993606561965,111885511,
0.3841642737388611,0.32520949840545654,0.9863565691678969,122052876,
-0.0024496912956237793,0.3126174807548523,0.8191573439556341,134380775,
-0.15612274408340454,0.2199057936668396,1.5514450634683645,140913208,
-0.5572054386138916,0.47358959913253784,0.9159061672947642,152001852,
-0.3041703701019287,-0.3616531491279602,1.0189882916334232,161942695,
-0.050189197063446045,0.38003188371658325,1.0080661594367635,171998094,
0.3832499384880066,0.8464303016662598,0.8527132580952437,183758842,
0.38436996936798096,0.10719835758209229,1.2078144430431546,191992134,
-0.16895943880081177,0.5026350021362305,0.996880861988892,202035196,
-0.14365142583847046,0.15154308080673218,0.8086075793291391,214569304,
-0.202384352684021,0.09871327877044678,1.3851074192359911,222032585,
0.09399962425231934,0.589356005191803,1.0311921031465738,232099477,
0.2971429228782654,-0.030088067054748535,1.023048612090443,242125126,
0.318196177482605,0.2416985034942627,1.0258664877035402,252114216,
-0.08565473556518555,0.36570602655410767,0.8371853760871371,264328973,
-0.24815809726715088,0.17112690210342407,1.3020319514268068,272138527,
-0.10244095325469971,0.6604825258255005,0.994781207298977,282264963,
-0.3618590235710144,0.1380895972251892,0.7762325866766677,295041618,
0.04397827386856079,0.18098413944244385,1.3820768876946254,302190954,
0.24937176704406738,0.557105541229248,0.9932827359060191,312218353,
-0.02238166332244873,0.03322625160217285,1.0076859167977748,322243731,
-0.22955447435379028,0.08491641283035278,1.021653179026876,332273110,
-0.41590410470962524,0.1274629831314087,0.8908452547428226,343812588,
-0.4067497253417969,0.02749568223953247,1.2239916054614302,352237946,
-0.1507645845413208,0.7290171980857849,1.02043920655091,362368531,
0.29298311471939087,0.26649677753448486,0.7966045190428116,375304603,
0.4578368663787842,0.07564878463745117,1.4799546902133942,382290098,
-0.16010111570358276,0.47836267948150635,1.0304240310399937,392358656,
-0.42489373683929443,0.13364332914352417,1.0350552738939853,402389241,
-0.3266787528991699,0.44103866815567017,1.0367463800809003,412332354,
-0.16821235418319702,0.492311954498291,0.904600403573691,423535094,
0.4570552706718445,-0.09469759464263916,1.1440562206468827,432352387,
0.6520248055458069,0.34185248613357544,1.0086929179503425,442390187,
-0.06995964050292969,0.18565154075622559,0.7812980025918439,455323816,
-0.015872061252593994,0.11849468946456909,1.41989554229209,462384581,
-0.13211339712142944,0.4244178533554077,0.9788652525557854,472472113,
-0.19690263271331787,0.043068110942840576,0.9813631779270722,482486055,
0.24133360385894775,0.3240247368812561,0.9955054774613805,492479443,
0.20858246088027954,0.5513065457344055,0.9154954559418889,503492116,
-0.01430124044418335,-0.0705493688583374,1.137514856974715,512467800,
0.03642994165420532,0.3247218132019043,1.0136938548567642,522513954,
-0.21714454889297485,0.3130674958229065,0.7649523360147262,535676036,
-0.2599529027938843,0.35900914669036865,1.4645701659378636,542509760,
-0.07729482650756836,0.9135950803756714,0.9926553706490274,552559097,
0.04604285955429077,-0.22822099924087524,1.016068496419177,562554378,
0.257316529750824,-0.10019969940185547,1.0332965199475121,572621433,
0.21242856979370117,0.4045586585998535,1.0159356644083468,582923195,
-0.1880277395248413,0.08696460723876953,1.082232999261129,592578652,
-0.1723228096961975,0.45894867181777954,1.0248081647074527,602655143,
-0.3063952922821045,0.13818144798278809,0.8037911966225597,615386177,
0.26754230260849,0.13242006301879883,1.4166063471488162,622606525,
0.5972368717193604,0.8615890145301819,1.0163775835936075,632628652,
-0.0702674388885498,0.04262256622314453,1.0155320410736837,642646444,
-0.18205827474594116,0.10487991571426392,1.0119379140769977,652718514,
-0.7722846269607544,0.4762057662010193,0.9337201752922635,663564519,
-0.5066457986831665,0.019473612308502197,1.090903947988775,672843623,
0.17982345819473267,0.5700932741165161,1.0223410983010024,682696750,
0.2586262822151184,-0.16244995594024658,0.7913378953572215,695413043,
0.1346697211265564,-0.40006881952285767,1.3917054628904446,702715468,
-0.2556902766227722,1.0550565719604492,1.004359180550577,712750272,
-0.38474440574645996,0.5325634479522705,0.9956973805540841,722790343,
-0.09151345491409302,0.37705063819885254,1.0147473149373643,732740170,
0.2962533235549927,0.2015025019645691,0.9514434765898686,743520949,
0.40706175565719604,-0.39443308115005493,1.1255626427420302,752847448,
0.12786561250686646,0.5446399450302124,1.0279666645813224,763008524,
-0.2857937812805176,0.5409421920776367,0.8026114340995716,775807392,
-0.41424745321273804,-0.0283966064453125,1.4686701202150008,782820504,
-0.2961931824684143,0.29400086402893066,1.015837811484104,792948756,
-0.2032964825630188,-0.06399810314178467,1.1401572585160582,801927703,
0.374289333820343,0.3784494400024414,0.9120069359543639,812971189,
0.3833865523338318,0.5710434317588806,0.9094733886013925,823805666,
-0.2526530623435974,-0.007725417613983154,1.081866875593969,832947288,
-0.45922327041625977,0.4501831531524658,0.9771616379262533,843260149,
-0.17577522993087769,0.15085530281066895,0.8501992314360172,855359852,
0.7302135825157166,0.36139023303985596,1.3388265518564801,863159663,
0.8081464171409607,-0.09370815753936768,1.052966868320265,873013319,
-0.24301284551620483,0.33345675468444824,1.0056394449031865,883147192,
-0.3895931839942932,0.716368556022644,1.011004633188431,893047697,
-0.5750768184661865,0.25623559951782227,1.0033767904599948,902927217,
0.07766920328140259,0.2575516104698181,0.9806575811537159,913074658,
0.4773217439651489,-0.11171787977218628,0.9969868178378664,923168246,
0.14254724979400635,-0.31904172897338867,0.8104826263470052,935778208,
-0.2706279754638672,0.6820863485336304,1.4266318112304455,943025137,
-0.6846950650215149,0.244209885597229,1.0017887892430457,953327741,
-0.4246216416358948,0.022152304649353027,1.0572400943494729,963075024,
0.03342592716217041,0.4582248330116272,1.0182198195953966,973244135,
0.7631151676177979,0.20546984672546387,1.0195616684844495,983457431,
0.4090037941932678,0.6991245150566101,1.0837726112190469,993120971,
-0.261235773563385,0.24971109628677368,1.0140699673315552,3336928,
-0.4976955056190491,0.027600646018981934,0.9265396156882486,14369778,
-0.42259055376052856,0.689891517162323,1.3033566063397939,22170716,
-0.0004114508628845215,0.012594401836395264,0.9085224017603725,33268770,
0.39765775203704834,-0.26072925329208374,1.017920178989613,43206203,
0.07296508550643921,0.3835427761077881,1.0090463520041792,53256461,
-0.22896867990493774,-0.05791163444519043,0.9821289050998546,63518192,
-0.3856097459793091,0.7817167043685913,1.0337469007602913,73247374,
-0.34609365463256836,0.693601131439209,0.9940068156937336,83410732,
0.19292813539505005,-0.1025165319442749,0.8331366825565647,95838798,
0.42279237508773804,0.3762524127960205,1.428622804767537,103286890,
0.4206174612045288,0.02553379535675049,1.063912910275615,113329576,
0.17207354307174683,0.13980001211166382,1.0572475376108115,123345344,
-0.446557879447937,0.6149066090583801,1.0428207067587085,133330325,
-0.6770246028900146,0.0037287473678588867,0.9738094135744442,143882015,
-0.4551583528518677,0.46476906538009644,1.0849787993380633,153366689,
0.024394512176513672,0.32113170623779297,1.006781822996982,163559441,
0.7583516240119934,-0.42809611558914185,0.8757299223001369,175425707,
0.33351635932922363,0.5488378405570984,1.330703157220005,183413863,
-0.40846556425094604,0.348246693611145,1.0538375170270267,193576713,
-0.5555167198181152,0.28713977336883545,1.0875173719761937,203506588,
-0.4786610007286072,0.5529323816299438,1.0889169162765786,213453027,
0.07778668403625488,-0.5983266830444336,0.9998469817166694,224248729,
0.720963716506958,0.41559016704559326,1.1603395112694874,233479763,
0.13934940099716187,0.7843164801597595,1.0404913252385242,243504925,
-0.25253087282180786,0.06257164478302002,0.8641206588704277,255366144,
-0.3381603956222534,0.7774213552474976,1.2546584918103805,263511863,
-0.4305471181869507,0.10070103406906128,1.0193739137069806,273553335,
0.16995257139205933,0.048993706703186035,1.032994871961375,283643012,
0.5353589653968811,0.5930385589599609,1.0514568687370436,293580209,
0.3626452684402466,-0.2635699510574341,1.004116905797871,303854674,
-0.08090704679489136,0.07430535554885864,1.0542484650230466,313578778,
-0.6916864514350891,0.36332523822784424,0.9912356969844215,323784786,
-0.4623708724975586,0.16794055700302124,0.8693871931510893,335375865,
0.10783708095550537,0.8693126440048218,1.2191167827416167,343663984,
0.7440553307533264,0.04962199926376343,0.978944073489412,353956828,
0.586554765701294,-0.049856722354888916,1.0405160530686783,363723676,
-0.28984493017196655,0.4959954023361206,1.02868820919837,373679910,
-0.4100344181060791,0.14766693115234375,0.952631394005655,384448536,
-0.7458049058914185,0.41762882471084595,1.0325255958544672,394408798,
-0.4910454750061035,0.25659918785095215,1.025785823477318,404383880,
0.021713614463806152,-0.25939035415649414,0.8761369946302492,416086812,
0.29837292432785034,0.7604996562004089,1.2393432438767054,424407645,
0.24078291654586792,0.5794069766998291,1.023244154406044,434470376,
-0.10204249620437622,0.28298336267471313,1.1092103747607893,443790434,
-0.4482848048210144,0.3221889138221741,0.971363656084704,454459581,
-0.44892269372940063,-0.2499864101409912,1.0292307158124103,464567329,
0.12194430828094482,0.40188610553741455,1.0660561103842408,474429882,
0.19104671478271484,0.5831250548362732,1.0515627385813722,484473180,
0.21888327598571777,-0.16629880666732788,0.9403060399733335,495700100,
-0.007184267044067383,0.33832281827926636,1.2086500903490494,504415595,
-0.49459636211395264,0.3019377589225769,1.0461819578803244,514476341,
-0.4400162100791931,0.31501954793930054,0.8864637568684663,526325003,
-0.3181138038635254,0.600391149520874,1.2801694707142826,534501247,
-0.023889482021331787,-0.09850400686264038,1.0453287137086782,544502541,
0.18911319971084595,0.21467167139053345,1.0493372197986306,554494692,
-0.21635138988494873,0.48608076572418213,1.0467761503035482,564560981,
-0.24088448286056519,0.07999062538146973,0.9492249290611691,575788705,
-0.07798224687576294,0.4805745482444763,1.2202117730914441,584516823,
-0.13826733827590942,-0.011319100856781006,1.0458308263961333,594578107,
0.5329209566116333,0.0385095477104187,0.873903669049189,606352247,
0.3475438356399536,0.7034097909927368,1.2228382669451892,614538595,
-0.15125125646591187,-0.003798186779022217,0.9935612229977215,624527052,
-0.18417459726333618,0.27411210536956787,1.001249223092787,634559567,
-0.4885719418525696,0.33043748140335083,1.0244755858617225,644499342,
-0.1796441674232483,-0.13605153560638428,0.9366101128440575,655512383,
0.0612335205078125,0.36868149042129517,1.148289949231785,664537496,
-0.16593772172927856,0.31979119777679443,1.0412865792671004,674623591,
0.014851987361907959,0.3379775881767273,0.8884828370933171,686605725,
-0.2131553292274475,0.9991516470909119,1.3386497853636534,694580661,
-0.372903048992157,0.13142073154449463,1.0632900044745675,704601928,
0.0012622475624084473,0.21244382858276367,1.064150788284291,714593128,
0.20199620723724365,0.4784126281738281,1.0652511200031667,724594388,
0.32172101736068726,0.10461556911468506,0.9515797910444963,735814919,
0.23761069774627686,0.5068005919456482,1.200231151332756,744602327,
-0.6313251256942749,-0.21723639965057373,1.022924469725188,754862524,
-0.08631610870361328,0.6824833750724792,0.9081876042105421,766489438,
0.3608945608139038,0.07112282514572144,1.2988744182147194,774716131,
0.4371417164802551,0.2950630784034729,1.0752057917517397,784724136,
-0.11341190338134766,0.27256453037261963,1.068497884615503,794813879,
-0.6157981753349304,0.09336888790130615,1.0840507577354275,804701852,
-0.6535850763320923,0.7671870589256287,0.996753132301853,815442701,
-0.12359470129013062,0.35305070877075195,1.1593166921665663,824619255,
0.38701170682907104,-0.0752413272857666,1.0498790062178043,834655579,
0.613199770450592,0.18610996007919312,0.8415098491943964,846993471,
-0.13212543725967407,0.06775104999542236,1.3323977042868524,854614029,
-0.48990070819854736,0.5631963610649109,0.9931101236061418,864660774,
-0.28651994466781616,0.5266675353050232,0.9906617468692575,874666887,
-0.40770775079727173,-0.16234147548675537,0.9859275461774015,884692668,
0.29092639684677124,0.31151020526885986,0.9458081445899694,895389694,
0.4879533052444458,0.2860088348388672,1.108928750692861,904669146,
-0.06459617614746094,0.09189474582672119,1.0036611768915344,914967875,
-0.3603721857070923,0.4849291443824768,0.826934174674519,927416884,
-0.7158554792404175,0.10124307870864868,1.3555801577340933,934965118,
-0.5104836225509644,0.4261261224746704,1.0485514677036043,944736137,
0.4320812225341797,0.6257681250572205,1.0247572086258918,954699967,
1.3015682697296143,0.013642609119415283,1.0117807163977148,964762928,
0.45111584663391113,0.2870771288871765,0.9556453529236072,975483631,
-0.5118656158447266,0.2116195559501648,1.1001808238678346,984805254,
-0.5497878789901733,-0.00237274169921875,1.0302104065661322,994766207,
-0.7152297496795654,0.5508373379707336,0.7942027552698461,7686063,
-0.20758891105651855,-0.0182686448097229,1.4535177000504045,14723537,
0.5031973123550415,-0.048171281814575195,1.0176900458724638,24833573,
0.30327844619750977,0.7228311896324158,1.0526735687632682,34779748,
-0.4393441677093506,0.280368447303772,1.0558646839297812,44817985,
-0.6173754930496216,0.6191564798355103,0.9315255191675909,56244718,
-0.6013016700744629,0.3690658211708069,1.2428932270737707,64821865,
0.2026270627975464,-0.0023977160453796387,1.0916328609751629,74795103,
0.7038501501083374,0.5639479160308838,0.9540000300068512,86395518,
0.2921929359436035,-0.020230650901794434,1.3109827400728042,94770993,
-0.37453895807266235,0.11352097988128662,1.0771007568560753,104807732,
-0.8898226022720337,0.5752469897270203,1.0664821678480272,114830484,
-0.49117547273635864,0.17046290636062622,1.0660304582723512,124821020,
-0.05712407827377319,0.7159660458564758,0.9868624993853005,135464606,
0.7725529074668884,0.12971127033233643,1.0960590536221735,144865359,
0.744208812713623,-0.3920280337333679,1.0156132887841993,154991840,
-0.486542284488678,0.7166224718093872,0.811481014290143,167749643,
-0.6260076761245728,0.22626346349716187,1.4517229902080186,174850206,
-0.5732641220092773,0.06328761577606201,1.1477001444267632,183893838,
-0.31293588876724243,0.29945212602615356,0.9475425957786594,194821074,
0.5484035015106201,-0.282875657081604,1.0297633582657386,204875238,
0.789741039276123,0.6579805612564087,0.9809423124745386,215439874,
-0.16441142559051514,0.6999979615211487,1.2054282322610026,223927170,
-0.5400818586349487,0.01864767074584961,1.0276959076806886,233909014,
-0.4383090138435364,0.6697983145713806,0.7942686735572331,246959771,
-0.7504448890686035,0.08864027261734009,1.5037968245750881,253921770,
0.22300344705581665,0.25704193115234375,0.971234911514756,264939434,
0.5803406834602356,0.5823863744735718,1.087277089057279,274941107,
-0.10786980390548706,-0.40015774965286255,1.0917324663372647,284958019,
-0.43256676197052,0.4244089722633362,1.0400867028748806,295426095,
-0.8119046688079834,0.8428267240524292,1.1035403178991017,305104303,
-0.12824320793151855,0.38700175285339355,1.0619456176338091,315019563,
0.6991106867790222,0.6274799704551697,0.8266798502814476,327701000,
0.7834880352020264,-0.3433600068092346,1.4466165871360772,335043943,
0.1343752145767212,-0.17416012287139893,1.0842422995854148,345070880,
-0.5704434514045715,0.8134298324584961,1.0795256877978754,355075500,
-0.683760941028595,0.051412343978881836,1.0684326904731782,365063629,
-0.4545828104019165,0.26874613761901855,0.9874712519989475,375871654,
-0.5475261211395264,0.17683106660842896,1.1464442521518265,385112257,
0.4825029969215393,-0.08960765600204468,1.046105898612749,395122062,
0.27802079916000366,0.8922314047813416,0.8341239787358795,407413283,
-0.3884374499320984,0.21199780702590942,1.2999640633051415,415104836,
-0.4834679961204529,0.06742793321609497,0.9995524312004198,425153668,
-0.4807507395744324,0.7354751229286194,1.0189983091601023,435220546,
-0.19741463661193848,0.22606885433197021,1.071559224747747,445150532,
0.3939824104309082,0.2468506097793579,1.0591611354490225,455449317,
0.775810718536377,0.1970226764678955,1.110118504179702,465194168,
-0.004125475883483887,-0.14612996578216553,1.1462133929302083,474423527,
-0.36432725191116333,0.6068153977394104,0.79691886103827,487404627,
-0.37325555086135864,0.6786689758300781,1.2918146236766468,495226310,
-0.32375961542129517,0.35643506050109863,1.005961215745016,505241267,
0.29060763120651245,0.42284250259399414,1.1198218721019102,514276350,
0.17467910051345825,-0.32778865098953247,1.0346568013759856,524270187,
0.023904025554656982,0.08621621131896973,1.038765296084343,534436021,
-0.41227757930755615,0.5971447229385376,0.9740241187442783,545270226,
-0.7954282760620117,-0.13500124216079712,1.0508294668628908,555295347,
-0.27804118394851685,0.39293456077575684,0.8385343914983701,567872252,
0.20830857753753662,0.5419025421142578,1.419020076459837,575310229,
1.0042856931686401,0.4611251950263977,1.0555065969332253,585344226,
0.495125949382782,0.6915313005447388,1.0334615984162372,595419584,
-0.6020351052284241,-0.07455116510391235,1.0368809415709386,605355695,
-0.6509793996810913,0.13597238063812256,0.9898622006314409,615752115,
-0.38648754358291626,0.7822571992874146,1.0568081551214035,625508198,
-0.20074087381362915,-0.031456172466278076,1.0521090096260608,635525782,
0.7215235233306885,0.1160815954208374,0.9037505672686005,647402979,
-0.3480038046836853,-0.08372008800506592,1.2945137972718614,655704069,
-0.22413164377212524,0.9618999361991882,1.076513053289304,665590514,
-0.5927572250366211,0.23828136920928955,1.0401815736640752,675604685,
0.15947139263153076,0.2769615054130554,1.0400201754205114,685586370,
0.3475208282470703,0.71000075340271,1.0280318540459203,695875091,
0.07484346628189087,0.13071268796920776,1.1135718393556822,705513018,
-0.27250921726226807,0.4971926808357239,1.0483907301857271,715805826,
-0.565720796585083,0.22351902723312378,0.8902030952711284,727772544,
-0.49135279655456543,-0.13595277070999146,1.3491522408695973,735585030,
-0.14698469638824463,0.9836821556091309,1.0656402096786484,745566471,
0.19331002235412598,0.23293906450271606,1.066086700093065,755586493,
0.31158363819122314,-0.3615342378616333,1.0758671361056162,765605968,
0.06444889307022095,0.4755859375,1.0752960326626426,775674289,
-0.3813205361366272,-0.00035881996154785156,1.063473559792187,785760617,
-0.5554947853088379,0.7000861763954163,1.0927689599177746,795604718,
-0.2622668147087097,0.5261663198471069,0.9078230955275546,807485804,
0.11963123083114624,-0.3755505084991455,1.311201380052703,815675788,
0.6317253112792969,0.7062318325042725,1.0781240830642136,825699114,
0.3901066780090332,0.6113045811653137,1.1565255700967998,834924767,
-0.3039941191673279,0.4924490451812744,0.9780675151029509,845702242,
-0.4541260600090027,0.6040613651275635,1.0381485428360993,855783930,
-0.5067786574363708,-0.22282308340072632,1.0423721379813355,865807684,
-0.16585159301757812,0.342718243598938,1.0722759944767901,875737357,
0.3805726170539856,0.49630099534988403,0.8869820781935359,887871888,
0.2141885757446289,-0.2516375780105591,1.3661486524953061,895770075,
-0.1777966022491455,0.23956602811813354,1.0833260628583112,905750879,
-0.4741628170013428,0.17136120796203613,1.0580475116575847,915833861,
-0.5775432586669922,0.6617454886436462,1.0543931928607109,925855733,
0.21592259407043457,1.1181191205978394,1.1619265054294123,934913668,
0.5224155187606812,-0.008243322372436523,0.9667541368091029,945814945,
0.2772045135498047,0.19631177186965942,1.0472632876316632,956077994,
-0.1428011655807495,0.4493306875228882,0.9497503662119198,967456956,
-0.3449804186820984,0.25571560859680176,1.263917900347232,975886325,
-0.7507046461105347,0.5682011842727661,1.1610716176460032,984918635,
-0.5031552314758301,0.08444315195083618,1.046046946619712,4929033,
0.3885890245437622,0.4821770191192627,0.9700845138813131,15987695,
0.32205361127853394,0.12684255838394165,1.0819131538484335,25970972,
-0.13409501314163208,0.3387311100959778,1.080088122712423,36000152,
-0.7245607972145081,0.39266443252563477,0.9231744483121428,47734886,
-0.45465517044067383,0.11354935169219971,1.3090675818589577,56002588,
-0.017413556575775146,0.7220945954322815,1.0695333120321557,66111107,
0.3058384656906128,0.35303884744644165,0.8636149019830549,78570227,
0.4313720464706421,0.18370801210403442,1.4356274742797248,86050357,
-0.287972629070282,0.7129049897193909,1.0673042311584258,96107443,
-0.3874432444572449,0.3060952425003052,1.0732428623569337,106065638,
-0.32714736461639404,0.4972754716873169,1.0652679353019316,116065858,
-0.0492326021194458,0.5103288888931274,0.9397581724787721,127446288,
0.4074457883834839,-0.2839970588684082,1.2654510431470096,136103285,
0.12237781286239624,0.21987038850784302,1.1118709262586135,146152907,
