acc_x, acc_y, angular_z, stamp, 
0.03633302450180054,0.009602367877960205,0.0008974011001704577,519804214,
0.05048263072967529,-0.006348609924316406,0.0047020401926092985,529679160,
0.20263957977294922,0.01373964548110962,0.014106502050561057,541294636,
0.3402838706970215,0.10581731796264648,0.05004030081654836,549675489,
0.7671907544136047,0.3004401922225952,0.09532448128050096,559775744,
1.1483774185180664,0.433257520198822,0.20717048771515098,579777408,
0.9526230692863464,0.06607949733734131,0.2483508719847147,589760010,
1.00308358669281,-0.08772259950637817,0.2101838259827257,600673118,
1.0414338111877441,-0.017365992069244385,0.24416460934356032,609871271,
1.0935611724853516,0.06281912326812744,0.20869808744461188,621371790,
0.7413772344589233,-0.182020902633667,0.30569285866358537,629759366,
0.6857077479362488,-0.5205861926078796,0.27180549281945715,639839117,
0.7023778557777405,-0.20485597848892212,0.22752303886290215,652725770,
0.3905237317085266,0.35520994663238525,0.4208014028564363,659870082,
0.3156322240829468,0.4680219292640686,0.3010508227297646,669875439,
0.42782753705978394,0.2942568063735962,0.3428367607496975,678956870,
0.5537511110305786,0.3008003234863281,0.36947113968965944,687918050,
0.5680834650993347,0.37020349502563477,0.25594713677375786,701754156,
0.6631232500076294,0.2969430685043335,0.5294022976766615,708901801,
0.5634126663208008,-0.05068159103393555,0.3700715943561768,719962717,
0.37705278396606445,-0.12961924076080322,0.32841110558831693,733401382,
0.6817384958267212,-0.028750836849212646,0.7060309186987129,739968551,
0.6322882175445557,0.01287168264389038,0.47051029289774665,750039269,
0.6414608955383301,-0.08158880472183228,0.4780786345576025,760182616,
0.49193376302719116,0.0173303484916687,0.5087958230483081,770173633,
0.48925644159317017,0.32877618074417114,0.48292886092298554,781271116,
0.4835517406463623,0.4641137719154358,0.6438300602622132,790050503,
0.3560401201248169,0.3184192180633545,0.5972927928487478,800122755,
0.4970570206642151,0.3495284914970398,0.6442139976578066,820141372,
0.7300657033920288,0.2581140398979187,0.6628747692629162,830162889,
0.4224761128425598,0.13973647356033325,0.6761352020327686,840185861,
0.35049736499786377,0.010037720203399658,0.6947861270923338,850192077,
0.6378281116485596,0.24399703741073608,0.6297552630004395,861426629,
0.3327651619911194,0.3124355673789978,0.8251141801318693,870161376,
0.4997557997703552,0.009596526622772217,0.732017035926891,880270396,
0.9224519729614258,0.3572115898132324,0.7614215015195676,900548844,
0.5934453010559082,0.13459992408752441,0.8106218841193874,910400020,
0.7798436284065247,0.40580570697784424,0.8158834352657858,920416306,
0.3017411231994629,0.4020457863807678,0.8445673125658821,930399618,
0.2783471345901489,0.20546841621398926,0.8006676122738895,941309685,
0.47911131381988525,0.2556570768356323,0.9954399257292214,950319935,
0.599236249923706,0.07118362188339233,0.8935838130177637,960373095,
0.30945926904678345,0.03264981508255005,0.672194957482736,973407091,
0.207757830619812,0.5012763738632202,1.2130504855806032,980380968,
0.24834191799163818,0.43691927194595337,0.8323750762960649,990358551,
0.6503714323043823,0.13286972045898438,0.8388048871868699,409627,
0.7535600662231445,0.04196542501449585,0.8767565991984951,10366570,
0.3361547589302063,-0.12738710641860962,0.766374580152122,21985868,
-0.05344122648239136,0.33826935291290283,1.051580428733783,30379274,
-0.1675143837928772,0.38839030265808105,0.855044793717023,40445689,
-0.3623988628387451,0.11251717805862427,0.6644010964411743,53145255,
0.03987771272659302,0.2998655438423157,1.1505317638548145,60422692,
0.30896395444869995,0.22555577754974365,0.8332565791224285,70414177,
-0.100594162940979,0.2768629193305969,0.7969138375530427,80835602,
-0.25900882482528687,0.4917239546775818,0.8460111537805536,90688691,
-0.6520451307296753,-0.12452644109725952,0.790296109705481,101345321,
-0.4992596507072449,0.08430427312850952,0.9317412128550698,110468601,
0.12121838331222534,0.21272361278533936,0.9043637165266565,119917400,
-0.3603751063346863,0.1229596734046936,0.8387841176995988,150509703,
-0.14480102062225342,0.34089183807373047,0.8559458911003459,160613589,
-0.2251267433166504,0.6852707862854004,0.8657346243019255,170585030,
0.3521450161933899,0.47967278957366943,0.8611650723007772,190658162,
-0.03397589921951294,0.29466331005096436,0.8876646282322433,200675961,
-0.05364036560058594,0.05048948526382446,0.7403826644486999,212904597,
-0.09378981590270996,0.2971231937408447,1.1356736925391362,220855528,
-0.3686230182647705,0.00679701566696167,0.896548966527876,230797925,
-0.10186302661895752,0.2837814688682556,0.9049316700303713,240674370,
0.026477515697479248,0.5093841552734375,0.8989395381682885,250651644,
0.12095147371292114,-0.24014657735824585,0.8270465334443331,261604424,
-0.19507956504821777,0.05667102336883545,1.0112005866126066,270653495,
-0.3940201997756958,0.2957264184951782,0.8993741639865195,280815065,
-0.02705514430999756,0.41840875148773193,0.7315384386925394,293352520,
0.27031803131103516,0.6487785577774048,1.2376944273082098,300722524,
0.19719642400741577,-0.3825732469558716,0.899405337114098,310759648,
-0.01289588212966919,0.05064678192138672,0.8957956453057839,320781026,
-0.23548883199691772,0.9416812062263489,0.8764998550046701,330827361,
0.25043612718582153,0.48972535133361816,0.845624791333784,351618920,
0.495524525642395,-0.2764620780944824,0.9624111388321153,361009955,
0.0737343430519104,-0.30091023445129395,0.7550253661871117,373171213,
-0.016733229160308838,0.5660114884376526,1.1678503929049036,380959556,
-0.4902266263961792,0.4502827525138855,0.9989983557565593,389912356,
-0.3884121775627136,0.1866127848625183,0.8047825862828468,400971279,
-0.29353684186935425,-0.03346824645996094,1.1098064423227085,408909557,
-0.13344132900238037,0.11821651458740234,0.7316013912831933,420764782,
0.38749396800994873,0.752754807472229,1.0387614002927479,428909280,
0.130590558052063,0.5129029154777527,0.6823585078559334,440969643,
-0.31126725673675537,0.1243370771408081,0.674819757379111,453170314,
-0.2539314031600952,-0.15605294704437256,1.0807546250682463,461014681,
-0.3491159677505493,-0.1852150559425354,0.8770162245915925,471015127,
0.08791649341583252,0.22755980491638184,0.8904252515976049,481072088,
0.6726818084716797,0.3605390191078186,0.8825904824627232,501341617,
-0.18157809972763062,0.16023892164230347,0.912361451838732,511044677,
0.2233070731163025,0.6468033194541931,0.8630803033916679,521130139,
-0.23368418216705322,0.7389661073684692,0.850930403809997,541118766,
-0.16029012203216553,0.12686681747436523,0.8523255026220726,551136997,
-0.37514984607696533,-0.12327349185943604,0.8652003502487949,561178604,
-0.0743514895439148,0.3725851774215698,0.8732591484217512,571199050,
-0.0629613995552063,0.10715430974960327,0.8456945744214072,581589146,
0.05684363842010498,0.3701722025871277,0.9257361890352218,591169970,
-0.222919762134552,0.29877227544784546,0.8919777609345704,601267950,
-0.17610031366348267,-0.09523063898086548,0.7412313079391503,613644027,
0.24966365098953247,0.6163682341575623,1.2096049571159286,621195965,
0.026133716106414795,0.17529863119125366,0.8828852437248548,631392721,
-0.14081090688705444,0.25112199783325195,0.9007322642543365,641269420,
-0.4877772331237793,0.5904440879821777,0.8833058737766336,651242840,
-0.35448241233825684,-0.05609095096588135,0.8409406060280677,661758704,
0.10440969467163086,0.22854435443878174,0.9221771242877576,671300497,
0.22676533460617065,0.19472545385360718,0.8699210041125262,681374571,
0.11803978681564331,-0.05220532417297363,0.7326049794193396,693459415,
-0.17858773469924927,0.9091241359710693,1.1247735981630635,701386760,
-0.3774293065071106,0.16176140308380127,0.8945926218091623,711484612,
0.23112857341766357,-0.04226958751678467,0.9165762140500072,721388309,
0.472190260887146,0.46458810567855835,0.8902864419039984,731433447,
0.13583862781524658,0.1946871280670166,0.880129709697059,741487111,
-0.2762172818183899,0.5961155891418457,0.8836353137454569,751378485,
-0.6849442720413208,0.10025691986083984,0.855009523037909,761476896,
-0.5697728991508484,-0.3725440502166748,0.7391437577005382,773132069,
0.32098591327667236,0.583748996257782,1.018676372016041,781504247,
0.6718615889549255,0.41382110118865967,0.7984281688398964,792283803,
-0.3457072973251343,0.17448031902313232,0.7398207893715508,804268952,
-0.6237381100654602,-0.36916112899780273,1.1338314460661112,812212551,
-0.2000058889389038,0.6803879737854004,0.9119609687711479,822188228,
0.42340415716171265,0.6601155996322632,0.9055184465230911,832125366,
0.24032217264175415,-0.2986908555030823,0.8779818440214039,842175044,
-0.21273845434188843,0.6415920257568359,0.780683471552552,853556320,
-0.32998204231262207,0.4802749752998352,1.0366007882833204,862157904,
0.06651663780212402,0.3067724108695984,0.8891533678778729,872145748,
-0.0566481351852417,0.6121719479560852,0.7398468521505078,884082644,
-0.004085898399353027,-0.0954621434211731,1.101397240498437,892105105,
-0.0413670539855957,0.27108997106552124,0.8919487077766621,902281117,
-0.24737459421157837,0.4392610192298889,0.9385529181692492,912114669,
-0.06518739461898804,-0.4566252827644348,0.9165777756630977,922156036,
0.38309788703918457,0.11014938354492188,0.8270467450743202,933200831,
-0.06285136938095093,0.38912761211395264,0.9881118531812828,942214800,
-0.2589975595474243,0.5275454521179199,0.8466399382842648,952450979,
-0.11934792995452881,0.7186297178268433,0.7280868017727046,964163745,
-0.01807647943496704,-0.2400914430618286,1.0611258136423416,972194078,
0.25732362270355225,0.22018951177597046,0.8614884621273726,982278882,
0.06278878450393677,0.5683414340019226,0.8952231159579601,992209561,
-0.6321742534637451,0.2730931043624878,0.8846613474592133,2291711,
-0.6040233969688416,0.22748643159866333,0.7931976760053525,13599098,
0.1577155590057373,-0.12578177452087402,1.0402328700742773,22240373,
0.5580800175666809,-0.11492043733596802,0.8919121693175237,32272228,
0.29057204723358154,0.7042018175125122,0.735193149744116,44184146,
-0.28156375885009766,0.3807194232940674,1.0494707278704032,52294441,
-0.4898907542228699,0.2500991225242615,0.8443044914423752,62293718,
-0.0006043314933776855,0.3603835701942444,0.8577847997814992,72235767,
0.5173049569129944,-0.17579394578933716,0.8645213925690656,82279959,
0.5772824883460999,0.27733397483825684,0.803013182000357,93127563,
-0.4243013858795166,0.4659390449523926,0.947703494165347,102243835,
-0.6181848645210266,0.11218917369842529,0.8537936905036535,112296942,
-0.21436697244644165,0.46254318952560425,0.7055764754486405,124369946,
-0.08771389722824097,0.036357223987579346,1.0474431446700383,132399099,
0.6123305559158325,0.4479069113731384,0.8437142000846709,142314961,
0.270499587059021,0.6610974669456482,0.8432943639285203,152249020,
-0.5259738564491272,-0.02465200424194336,0.8549730646209533,162276812,
-0.19041389226913452,0.2234209179878235,0.773045698871874,173586797,
-0.30930566787719727,0.16599881649017334,1.0038769555596836,182358928,
0.21245664358139038,-0.006305396556854248,0.8753721353514464,192590995,
0.09863680601119995,0.7276007533073425,0.735858509432121,204736602,
-0.20161283016204834,0.09720832109451294,1.1831029513518145,212268933,
-0.26110994815826416,0.29974883794784546,0.8854456949510507,222352363,
-0.21367031335830688,0.7344273328781128,0.8900529551207085,232299553,
0.22858178615570068,0.0430833101272583,0.8827242802884511,242308805,
0.015898287296295166,0.5818885564804077,0.7926975454297404,253502477,
-0.14755183458328247,0.37261736392974854,1.0147549242272444,262299728,
-0.4397292733192444,-0.2688078284263611,0.8978838103292469,272411023,
0.006357371807098389,0.27883630990982056,0.7343572170790851,284723339,
0.037529170513153076,-0.06809300184249878,1.1808155720461064,292332947,
0.15665948390960693,0.250149130821228,0.8927729591743924,302378551,
0.23972678184509277,0.7929871082305908,0.8924710880969103,312346054,
-0.2856372594833374,-0.3769681453704834,0.882853698226427,322381321,
0.14508581161499023,0.16803181171417236,0.8279478610364104,333150584,
-0.2985149025917053,0.4255361557006836,0.9615048026900705,342405914,
-0.4053225517272949,0.4433141350746155,0.888434033205296,352445257,
-0.25275593996047974,0.8934204578399658,0.6849011630242666,365435976,
-0.5724776983261108,-0.3940773606300354,1.2875885440787693,372414656,
0.20549213886260986,-0.012527823448181152,0.9076653356402019,382528480,
0.2958639860153198,1.0831619501113892,0.9175429132817924,392474817,
0.11107003688812256,0.39063966274261475,0.9051185033473536,402533635,
-0.15190303325653076,0.5484597086906433,0.8512442115566292,413208894,
-0.3511560559272766,0.04406172037124634,0.9796070300498335,422443413,
0.04673117399215698,-0.24978363513946533,0.9096457814265335,432481445,
0.5396610498428345,0.7478910088539124,0.7083739835741085,445219725,
0.4897574186325073,0.23757797479629517,1.184259351764755,452643124,
-0.3493325114250183,-0.17044681310653687,0.865693788077779,462686509,
-0.6849366426467896,0.07871478796005249,0.8870062470458551,472491698,
-0.5364001989364624,-0.29620635509490967,0.8805281591590123,482500391,
0.2152700424194336,0.6447505950927734,0.8033747733483729,493592608,
0.8176232576370239,0.5852766633033752,0.9976205963966361,502509480,
0.06429159641265869,0.039841651916503906,0.876454171100279,512759113,
-0.3238016963005066,0.38934147357940674,0.7322601558223365,525136205,
-0.40708690881729126,0.20870351791381836,1.219189297515216,532527057,
-0.37237364053726196,0.5705126523971558,0.8842313029174017,542575952,
0.33485472202301025,0.6546720862388611,0.8591603203773543,552592287,
-0.07771199941635132,-0.22826188802719116,0.8479622819855201,562533953,
-0.0041092634201049805,0.32995957136154175,0.7923690365170929,573175827,
-0.1864912509918213,0.47649770975112915,0.8998270590955221,582608097,
-0.09654706716537476,0.0026584863662719727,0.8615201883783441,592615363,
0.056453049182891846,0.3478511571884155,0.6801585064220022,605418631,
-0.5108647346496582,0.07140958309173584,1.2115468429808864,612619956,
-0.23335933685302734,0.06350630521774292,0.8625133986732514,622843269,
-0.06209319829940796,0.5631670951843262,0.9025625679115757,632581967,
0.358190655708313,-0.02326381206512451,0.8718547197575919,642620458,
0.3985990285873413,0.3492893576622009,0.8190676269046698,653183331,
-0.34433746337890625,0.7059615850448608,0.8981658391934815,662701986,
-0.3990193009376526,0.1718929409980774,0.8545270949304228,672743253,
0.42080897092819214,-0.13363373279571533,0.673567418823757,685616793,
0.42080897092819214,-0.13363373279571533,1.184713328647973,693076529,
-0.2644932270050049,0.7284868359565735,0.8978434218575709,702978313,
-0.678265392780304,0.19842565059661865,0.8805573964208627,712942338,
-0.5392266511917114,0.08925497531890869,0.8872828085191634,722798084,
-0.03015303611755371,0.2516268491744995,0.8441403545541059,733159366,
0.5102694034576416,-0.013451039791107178,0.9046836536300494,742863518,
0.2550331950187683,1.1593595743179321,0.9817128947719077,751893741,
-0.5302228331565857,0.6415672898292542,0.6686739089535854,765135570,
-0.5378997325897217,-0.14754712581634521,1.1528001707407993,772800020,
0.26543962955474854,0.3394784927368164,0.8868460348165639,782854689,
0.4392733573913574,-0.0675971508026123,0.8951867229409387,792880262,
0.3814181089401245,0.38341158628463745,0.8887444172301379,803004054,
-0.35321784019470215,0.38256919384002686,0.8144834885087411,813878733,
-0.6123383045196533,-0.5519618988037109,0.9694071301237415,822851251,
-0.16509944200515747,0.43256235122680664,0.8686861564968629,832872284,
-0.07796096801757812,0.47432994842529297,0.7006308698247493,845219954,
0.38025492429733276,0.23988229036331177,1.2712721038613741,851983472,
-0.12359070777893066,0.800420880317688,0.8774085690416121,861926895,
-0.5225341320037842,0.028316736221313477,0.8735289987516254,872017946,
-0.08961665630340576,0.31225037574768066,0.8219659480635951,882948677,
0.05865609645843506,0.46668338775634766,0.9803382278382371,892201433,
-0.16882342100143433,-0.1900901198387146,0.841276966440342,902964334,
-0.15521091222763062,0.6267185211181641,0.8975661713582984,913023993,
-0.1727636456489563,0.4654085636138916,0.7147195308667079,925457740,
-0.10994958877563477,0.0006474852561950684,1.16417260130428,933037365,
0.3269982933998108,0.4749050736427307,0.8677472710340837,943294448,
0.408888041973114,0.03411829471588135,0.9139449565559629,953130198,
-0.2127661108970642,0.45169883966445923,0.9173770304103637,963043972,
-0.357097327709198,0.6605152487754822,0.8901498044212042,973180070,
-0.2888508439064026,-0.29784083366394043,0.9064967399657663,983073103,
0.1790890097618103,0.05277979373931885,0.8871384200046294,993337703,
0.22263914346694946,0.26376986503601074,0.7248224207042725,5852838,
-0.33452552556991577,0.3320719003677368,1.2166536422785623,13134103,
-0.3527981638908386,0.8098052740097046,0.8629702611019181,23182059,
-0.24484556913375854,-0.007940411567687988,0.8570836452637469,33237176,
0.578929603099823,0.1939029097557068,0.8853846420315028,43175792,
0.7201099991798401,0.4328571557998657,0.8923211771752558,53229250,
-0.37493574619293213,0.08908212184906006,0.9055352111295314,63157138,
-0.4723917245864868,0.6319990158081055,0.8880114799802182,73224930,
-0.5366436839103699,0.27865540981292725,0.7372743820578309,85193854,
-0.2662017345428467,0.06350386142730713,1.0910163384766816,93210096,
0.46856385469436646,0.6447106003761292,0.856326489695775,103262733,
0.3090461492538452,0.20864427089691162,0.8424766556282403,113296887,
-0.09535872936248779,0.21060717105865479,0.8493095495688744,123248362,
-0.3758534789085388,0.2551213502883911,0.7928462774553967,133983016,
-0.4137553572654724,-0.2924344539642334,0.9367046529108077,143274130,
0.08954006433486938,0.3629002571105957,0.882162275984398,153334304,
0.2620656490325928,0.5106576085090637,0.7370193076358993,165236253,
0.06625622510910034,0.08148026466369629,1.0617346246170973,173356107,
-0.24859631061553955,0.5186819434165955,0.8549429238493068,183346020,
-0.11834996938705444,0.20959287881851196,0.849407888185435,193437325,
0.11625802516937256,0.4669155478477478,0.8594081701884347,203398007,
0.2698014974594116,0.6571038365364075,0.8370223983404776,213459462,
-0.00494384765625,-0.16448748111724854,0.8491044150375366,223395827,
-0.15932106971740723,0.18579775094985962,0.8528772148964917,233451619,
-0.20313048362731934,0.5170567035675049,0.7396687940745762,245146166,
-0.3160160779953003,-0.08174550533294678,1.0519461480156265,253456611,
0.09766477346420288,0.5021807551383972,0.8680142899465387,263562713,
-0.004709601402282715,0.18545353412628174,0.8822026027648777,273525614,
0.06750625371932983,0.3694990277290344,0.8877799028135702,283508912,
-0.052042603492736816,0.8428173661231995,0.8853611159934738,293548964,
-0.24331432580947876,-0.11802273988723755,0.8986174651379704,303514011,
0.16301751136779785,0.35267049074172974,0.9000021617195744,313539156,
-0.16861683130264282,0.5146268010139465,0.7474040245120557,325640338,
0.17068755626678467,0.11889767646789551,1.1417470612747513,333587366,
0.2819094657897949,0.47303658723831177,0.9026416204149427,343575241,
-0.2323688268661499,-0.08214890956878662,0.887639950298162,353680891,
-0.17537552118301392,0.17323249578475952,0.8981020497921498,363681489,
-0.2581859230995178,0.9002622365951538,0.8909935300753097,373693848,
-0.2179732322692871,-0.11056500673294067,0.899925137349333,383624752,
0.14348053932189941,0.1931878924369812,0.887552903142936,393791160,
0.21209537982940674,0.3299363851547241,0.7903623451543719,405187772,
0.10275685787200928,0.17873752117156982,1.0556267276068185,413681255,
-0.29873067140579224,1.0095100402832031,0.8770271104365097,423720173,
-0.3021572232246399,0.03249627351760864,0.6796148377319462,436505333,
-0.27590763568878174,0.1426061987876892,1.2039109950653188,443766442,
0.1890520453453064,0.8158118724822998,0.8672630725305144,453786001,
0.4202297329902649,-0.02885270118713379,0.8619864145733442,463797709,
-0.054582834243774414,0.4188242554664612,0.9373520930233805,472912579,
-0.41873419284820557,0.2339830994606018,0.6761948179745431,485538030,
-0.6155429482460022,-0.4112147092819214,1.0653312964272756,493802966,
-0.09591108560562134,0.5340912938117981,0.8965144028223905,503836253,
0.31508463621139526,0.16883933544158936,0.730640350185371,516250546,
0.5103287100791931,0.02637326717376709,1.1899412243750627,523867938,
-0.269644558429718,0.4941292405128479,0.9892903171890167,532908481,
-0.6525574922561646,0.051328837871551514,0.8886039992615904,542908193,
-0.17229962348937988,1.018670916557312,0.7924024220082516,553987306,
-0.10216879844665527,0.7655168175697327,0.771564218397679,565213980,
0.24953025579452515,0.09523612260818481,0.9962162628777822,573983199,
-0.24043631553649902,0.14330148696899414,0.8589477584797396,584282321,
-0.4562808871269226,-0.0020192861557006836,0.7454757521407476,596349822,
-0.042967915534973145,0.26500415802001953,1.170888407809596,604088397,
0.27785253524780273,-0.18958234786987305,0.8940508230050543,614091086,
0.40515458583831787,0.4766506552696228,0.9787076435403994,623120116,
0.1969292163848877,0.6660749912261963,0.8849891242285213,633003581,
-0.04682934284210205,0.13066011667251587,0.7560915274103378,644627797,
-0.08975321054458618,0.47775477170944214,1.0670713443578799,653018496,
-0.30261290073394775,0.23516958951950073,0.8108981274647726,664112480,
-0.44174182415008545,0.315064013004303,0.7204010313759496,676586870,
-0.09061866998672485,0.6334095597267151,1.1869810720169736,684126223,
0.10638844966888428,-0.11320900917053223,0.8908695588260591,694110592,
0.2851634621620178,0.09182387590408325,0.8845250786417501,704188937,
0.04633206129074097,0.49772101640701294,0.885458347124435,714143748,
-0.5088074207305908,0.2930518388748169,0.7864077677688088,725198375,
-0.25284290313720703,0.7291574478149414,0.9763214676787711,734146225,
0.05346745252609253,0.0673295259475708,0.8852238779206554,744193419,
0.3191412687301636,-0.11497598886489868,0.7282996832563632,756722066,
0.5499123334884644,0.523900032043457,1.2098216453072523,764276689,
-0.37733548879623413,0.1236501932144165,0.8849242951724203,774360095,
-0.43547874689102173,0.4370865225791931,0.8878244554300989,784305894,
-0.7352701425552368,0.4344106912612915,0.8857517348734153,794246256,
-0.01494687795639038,-0.17192620038986206,0.7735718554492831,805559976,
0.9515891075134277,0.8177353739738464,0.9937333712952678,814271275,
0.3902313709259033,0.36375218629837036,0.8550180518612435,824300097,
0.06765472888946533,0.09318286180496216,0.6721661204945213,837255598,
-0.438545823097229,0.46069759130477905,1.2526693048552306,844322039,
-0.6038006544113159,-0.256097674369812,0.8909008823734976,854341632,
0.04079282283782959,0.3018442392349243,0.8952409085519974,864415661,
0.010595381259918213,0.5902106761932373,0.8938858841577865,874359702,
0.1149982213973999,-0.00856471061706543,0.8073353401484495,885226103,
0.013968050479888916,0.5626803636550903,0.9687917936460738,894346618,
-0.08128231763839722,0.3057817220687866,0.8850858431315938,904396730,
-0.16830945014953613,0.13108140230178833,0.7049732369873541,917211079,
-0.2717295289039612,0.9003135561943054,1.2589346178588912,924423802,
-0.1989235281944275,0.17914670705795288,0.8984919160099409,934479643,
0.0027901530265808105,0.28026825189590454,0.9169868408941024,944489013,
0.11290889978408813,0.2755064368247986,0.9249341451750198,954470318,
-0.31967008113861084,-0.45730698108673096,0.8044932000100301,965943295,
0.33104580640792847,0.8722749948501587,1.0673466906236795,974450329,
0.09970873594284058,0.6732836961746216,0.8637251521260418,984556198,
-0.04057276248931885,0.3189648985862732,0.6804714035665146,997228352,
0.20047998428344727,0.38564252853393555,1.2064496984553053,4496647,
-0.07533329725265503,-0.3634641766548157,0.8990665150663132,14510887,
-0.10943317413330078,0.38099974393844604,0.9106917153052038,24628791,
-0.46517884731292725,0.7074993252754211,0.9247490030683163,34551834,
-0.4183748960494995,-0.13008928298950195,0.8315153143715228,45553686,
-0.24984729290008545,0.15300720930099487,1.0246186084827176,54567435,
-0.04673820734024048,0.1895950436592102,0.9161572563535156,64584792,
0.1475132703781128,0.5744844675064087,0.6939803648569911,77535023,
0.2185874581336975,1.057773470878601,1.2217856810144458,84645245,
-0.04560220241546631,0.11259883642196655,0.9173799473260701,93927726,
0.10182058811187744,0.14848506450653076,0.8103459013488579,104674143,
0.42887938022613525,0.36112385988235474,0.8984392079228415,114650651,
0.014905691146850586,0.005400240421295166,0.7619600393928723,126568729,
-0.13445019721984863,0.23543691635131836,1.1102599122040753,134713556,
-0.2958982586860657,0.07431298494338989,0.8952226157915776,144697139,
-0.49568653106689453,0.16234320402145386,0.6783530598757379,157856623,
0.03252279758453369,0.7608245611190796,1.2885319674867428,164719174,
0.2858046889305115,0.16177397966384888,0.943229488773616,173895509,
-0.0316845178604126,0.3495112657546997,0.783027582883512,184820813,
-0.311542272567749,0.5767713189125061,0.860652674183997,194765631,
-0.4086468815803528,0.2628755569458008,0.8339042858624856,205260708,
0.0016949772834777832,0.4585685133934021,0.9428880034579985,214823784,
0.43986546993255615,0.2399563193321228,0.9129469295942599,224829005,
0.4756397008895874,0.05934321880340576,0.7328760543832997,237263555,
0.030761539936065674,0.30143117904663086,1.1870285279575743,244839329,
-0.5908757448196411,0.2230125069618225,0.884992211036236,254861612,
-0.15813809633255005,0.6516776084899902,0.964138206347578,263934276,
0.26150327920913696,0.4137040376663208,0.8613088038193258,273911275,
0.3731619715690613,-0.09064316749572754,0.7273841704451398,285686725,
0.060766398906707764,0.5650182366371155,0.9344170686104629,294944291,
-0.50151526927948,0.36439311504364014,0.9798553097910079,303896343,
-0.5059403777122498,-0.1181875467300415,0.6649898564725103,317256040,
0.05578500032424927,0.22612625360488892,1.1465226044303471,325000090,
0.4286237955093384,-0.0623818039894104,0.8830878194916245,334981482,
0.4687809348106384,0.5806483626365662,0.8685444138753723,345049733,
0.07805776596069336,0.5976259708404541,0.8529974262413319,355227925,
-0.22336196899414062,-0.14791178703308105,0.8706889150015245,365254068,
-0.22622734308242798,0.58758544921875,0.8963325809431356,375046558,
-0.2114197015762329,0.47047263383865356,0.8774281657699456,385081226,
-0.20419055223464966,0.342166006565094,0.7306293196072551,397239371,
-0.26102834939956665,0.3630716800689697,1.317640689327496,404059293,
-0.17050385475158691,-0.08296877145767212,0.8248006689029524,415145418,
0.18993490934371948,0.6893330812454224,0.9149806003469716,425162309,
0.18450886011123657,0.7895747423171997,0.9095645286689351,435158104,
-0.23334425687789917,-0.021914362907409668,0.9000612883951534,445265994,
-0.16546964645385742,0.4249137043952942,0.9181080092364319,455191830,
0.010753154754638672,0.13587766885757446,0.9081813077043883,465269243,
0.5860059261322021,0.5771993398666382,0.7312116717603439,477707479,
-0.3781076669692993,-0.36662936210632324,1.151869368471887,485391477,
-0.5425223112106323,0.4365141987800598,0.883615261770641,495308503,
-0.7215540409088135,0.43171197175979614,0.8633210244982671,505421203,
0.022225499153137207,-0.03128623962402344,0.8631255144780513,515521026,
0.1963900327682495,0.08680200576782227,0.8899897282623541,535311248,
-0.346177339553833,0.3794158101081848,0.8855144807334233,545464286,
-0.4750210642814636,0.6659836769104004,0.7689699735963843,557261146,
-0.18464219570159912,-0.010440707206726074,1.1158186009995932,565347406,
0.15445715188980103,0.41371506452560425,0.8951231197885595,575440805,
-0.06902426481246948,0.42840665578842163,0.8984644238463042,585412753,
-0.35350728034973145,0.23119211196899414,0.8955028469909894,595346728,
-0.20299744606018066,0.5720982551574707,0.8180785919740593,606278503,
0.06346005201339722,-0.015334725379943848,0.9686989944116038,615566333,
0.3411804437637329,0.22851228713989258,0.9114381431907425,625542097,
0.44075363874435425,0.5403107404708862,0.7246332572302631,638044967,
-0.2893067002296448,0.019664347171783447,1.205704460955365,645449029,
-0.47923076152801514,0.3104093074798584,0.8926387290291985,655443621,
-0.03587692975997925,0.2527822256088257,0.8855017817576651,665518052,
0.16799938678741455,-0.15827393531799316,0.8939920609873219,675468397,
0.46517711877822876,0.7470067739486694,0.87295671320906,685556467,
0.3706306219100952,0.4647505283355713,0.8723989574817648,695502293,
0.05029398202896118,0.2787027359008789,0.8552399481524203,705716326,
-0.09588795900344849,0.3746591806411743,0.7369383781557903,717802752,
-0.3759814500808716,-0.16621363162994385,1.1616352452536338,725563271,
-0.2055361270904541,0.43151313066482544,0.8962921232273869,735695175,
-0.5252891778945923,0.6457007527351379,0.9135566938634851,745612312,
-0.24320656061172485,-0.012237846851348877,0.900205807766038,755634438,
0.3120208978652954,0.3524494171142578,0.9046075163924492,765615238,
0.1260332465171814,0.19759327173233032,0.9022918935704971,775610087,
0.1598520278930664,0.4831926226615906,0.9006148121727933,785637562,
-0.036641716957092285,0.9615082144737244,0.7904176332264706,796999332,
-0.24344205856323242,0.050240933895111084,1.0417819711063685,805624846,
0.1853916049003601,0.2639307975769043,0.9061663727241797,815653069,
0.46150970458984375,0.22958588600158691,0.8975644556082104,825740329,
0.29703718423843384,-0.03999537229537964,0.8923008950809107,835794576,
-0.289376437664032,0.5945739150047302,0.8865663236372571,845761790,
-0.4157617688179016,-0.026898086071014404,0.876096511973683,855681091,
-0.14957797527313232,-0.022861599922180176,0.8628427814214203,865732782,
0.34167444705963135,0.6556668877601624,0.753884252856945,877283947,
0.5222983360290527,0.04986917972564697,1.0275531088628824,885786421,
-0.07897913455963135,0.6623072624206543,0.8784093996621144,895765513,
-0.43583303689956665,0.48835569620132446,0.8667925003802496,905836428,
-0.6446956396102905,-0.22173142433166504,0.8890324323721606,915762853,
-0.08848083019256592,0.5388776659965515,0.8886898051188269,925790053,
0.38136881589889526,0.1732546091079712,0.8863762486433733,935818140,
0.6514057517051697,0.3656367063522339,0.862330220631413,946128632,
0.0983017086982727,0.7700913548469543,0.7732367205348653,957573696,
-0.6294324994087219,-0.24087858200073242,1.0802704810040586,965823004,
-0.03418278694152832,0.2810022234916687,0.9016812589693488,975854166,
-0.4411134123802185,0.39342421293258667,0.9987244752250583,984899112,
0.276732861995697,0.08639049530029297,0.8222561474448177,995891401,
0.4573802351951599,0.9172353744506836,1.0019373927812012,4922477,
-0.3763575553894043,-0.12736856937408447,0.8267092288564757,15887339,
-0.2734902501106262,0.04941999912261963,0.9118024982811541,25948303,
-0.25733333826065063,0.8291225433349609,0.802399097201854,37299968,
0.2371862530708313,0.2312530279159546,1.1711100783186323,44937114,
0.21747493743896484,0.6047722101211548,0.8021633665131018,55984199,
0.18064218759536743,-0.007012784481048584,0.7149535950286185,68558753,
-0.07764530181884766,-0.08859455585479736,1.2595036319529547,75971504,
-0.1489492654800415,0.7172403335571289,0.9345530661914857,86036906,
0.07816517353057861,0.2616881728172302,0.9282206067193395,96025459,
-0.233440101146698,0.14226937294006348,0.9203403260207957,106041911,
-0.1358204483985901,0.3561173677444458,0.7827505861669101,117712649,
-0.2264862060546875,0.16326987743377686,1.2346483194048288,125062061,
0.21255528926849365,0.7714148163795471,0.8014535096103843,136172417,
0.16942906379699707,0.26795321702957153,0.6928266949974223,148726706,
-0.3773135542869568,0.03515744209289551,1.1706962966717989,156120476,
-0.07666456699371338,0.4959667921066284,0.86164518972739,166178469,
-0.18312478065490723,-0.015681862831115723,0.8773898807621051,176143071,
0.21352672576904297,0.14474332332611084,0.8764831020935189,186185301,
0.17886674404144287,0.298104465007782,0.7827359412559175,197388471,
-0.13447022438049316,0.0004506111145019531,0.9963145057615543,206171489,
-0.3363165855407715,0.6847506761550903,0.8677368682392971,216196164,
-0.40268903970718384,0.4060932993888855,0.6933683846870548,228717009,
0.15446358919143677,0.04002910852432251,1.1554623661469952,236295399,
0.3442534804344177,0.4169381856918335,0.8818815937102421,246278022,
0.1087268590927124,0.16255778074264526,0.8939922097682187,256257097,
-0.18014264106750488,0.3607563376426697,0.892820415635049,266339949,
-0.30027663707733154,0.6208736896514893,0.7962038512805566,277605440,
-0.12475395202636719,-0.00695723295211792,1.0308081670804536,286285369,
0.6751667857170105,0.40243232250213623,0.8810186463143542,296337091,
0.46227604150772095,0.38684630393981934,0.7086862716625199,308785463,
-0.1394250988960266,0.30536484718322754,1.1610406697203495,316414559,
-0.2992212176322937,0.645575761795044,0.8923572400070846,326430236,
-0.30019134283065796,-0.09667867422103882,0.9106723449360828,336466309,
0.06128031015396118,0.17310839891433716,0.922029546743068,346494758,
0.3921622037887573,0.47537410259246826,0.8580781695005562,357294017,
0.3540564179420471,-0.019500434398651123,1.017058478837142,366473805,
-0.41091275215148926,0.21129775047302246,0.8451145968440917,377425361,
-0.08001303672790527,0.2997128963470459,0.8043220964712949,388741731,
0.12638235092163086,0.9243502616882324,1.039857817142413,397311733,
0.37124937772750854,-0.0163307785987854,0.9298714285076295,406585514,
0.19552862644195557,0.1817198395729065,0.8628773580735044,416475708,
0.05826699733734131,0.40924161672592163,0.8462591294986529,426685233,
-0.3199236989021301,-0.02719402313232422,0.7877333808217182,437743147,
-0.2929795980453491,0.4979550242424011,0.9748217982633334,446667282,
-0.5986602306365967,0.2899966835975647,0.8668790744232081,456604116,
-0.0054465532302856445,0.14948982000350952,0.6627607094224389,469576171,
0.5105656981468201,0.8035529255867004,1.239047514822899,476588277,
0.17153620719909668,-0.02842646837234497,0.8703142575115884,486624917,
-0.06517213582992554,0.22358983755111694,0.8772268673258854,496620058,
-0.5354097485542297,0.47129589319229126,0.8758486074659652,506625679,
-0.5882930755615234,0.17834562063217163,0.8173547280761942,517333999,
0.16107356548309326,0.5814176797866821,0.889367562082895,527316562,
0.48912519216537476,-0.13885384798049927,0.8804476067297721,537551561,
0.4461807608604431,-0.2698844075202942,0.7719001680196023,549433006,
-0.13331592082977295,0.9598431587219238,1.1630157253966,557396785,
-0.31544631719589233,0.43035125732421875,0.9225404075431767,567333390,
-0.18871766328811646,0.4162787199020386,0.9120412418474698,577354076,
0.3463935852050781,0.2582399845123291,0.9112961542858656,587342866,
0.43793797492980957,-0.051806747913360596,0.8957275877374703,597457878,
-0.11175394058227539,0.7521346807479858,0.9213358776868581,607304626,
-0.375935435295105,0.42224931716918945,0.8908685719851515,617378191,
-0.5508407950401306,-0.17660397291183472,0.7109293956162381,629942620,
-0.08775031566619873,0.09842026233673096,1.2043451853242417,637350640,
0.3034524917602539,0.09852093458175659,0.8808113183833349,647391047,
0.593631386756897,0.7652885913848877,0.8807526189345367,657370609,
0.19702911376953125,0.5447490215301514,0.8647624815678758,667484078,
-0.5467426180839539,-0.21410322189331055,0.882679369473428,677416714,
-0.1967906355857849,0.22481244802474976,0.8857914424010108,687398411,
-0.2228112816810608,0.24372005462646484,0.8782026110862958,697479827,
-0.13794422149658203,0.4248533248901367,0.7305958878372135,709574229,
0.005787491798400879,0.5321676135063171,1.1222394163227176,717455323,
-0.0943480134010315,-0.3115008473396301,0.8783028576552414,727438673,
0.04508882761001587,0.1953163743019104,0.8776886614377324,737430186,
0.00970911979675293,0.8044202923774719,0.8743338104918178,747435445,
-0.09706854820251465,0.49421221017837524,0.8455100555024546,757750313,
-0.05652487277984619,0.5338332653045654,0.9199721253523815,767404833,
0.04251784086227417,-0.13060325384140015,0.8954850370482398,777527321,
0.08735930919647217,-0.2591472268104553,0.7646992017262879,789582439,
0.21088528633117676,0.6461786031723022,1.1669856875010156,797488163,
0.0418926477432251,0.42601627111434937,0.9469884167564004,807074533,
-0.15190696716308594,0.467440128326416,0.9016863322182529,817107695,
-0.017723560333251953,0.3275536298751831,0.9081442747496788,827053688,
-0.023917675018310547,-0.14690661430358887,0.9170807502571577,837003765,
0.3760409951210022,0.6805912852287292,0.9070358684113922,847082318,
0.0917101502418518,0.5232725143432617,0.9055635786569447,857102597,
-0.5439810752868652,0.12443315982818604,0.7332920620067971,869613651,
-0.05933547019958496,0.3218159079551697,1.243043958608747,877092931,
-0.04330402612686157,-0.34116894006729126,0.9283281090668781,887174159,
0.43814516067504883,0.29664450883865356,1.0325689704535523,896217085,
0.1671106219291687,0.5594229102134705,0.915665041546053,906188803,
-0.1958044171333313,0.07855343818664551,0.8814957893996851,916364724,
-0.15419697761535645,0.8444608449935913,0.831135487409337,927144406,
-0.40112656354904175,0.15262728929519653,0.900046209950111,937204782,
0.5491845011711121,0.13494163751602173,0.7060110030720741,950249428,
0.5867725610733032,0.6306430101394653,1.3223301968006087,957206484,
0.10325431823730469,0.10374683141708374,0.9021709321295952,967266693,
-0.23810583353042603,0.4045482277870178,0.9010809839698419,977262794,
-0.5224528908729553,0.17181998491287231,0.8922716786730661,987285646,
-0.24595218896865845,-0.20871925354003906,0.8672197043847156,997582576,
0.44461941719055176,0.6021771430969238,0.9085763728408867,7272241,
0.5418977737426758,0.22701698541641235,0.859226318201168,17309539,
-0.2316015362739563,0.07409757375717163,0.6858903163127397,29858057,
-0.3516216278076172,0.5066450834274292,1.1609775760801304,37327000,
-0.2856428623199463,-0.1841002106666565,0.8833831916968694,47353514,
0.0792841911315918,0.5403040051460266,0.8986891791569148,57404701,
0.29277002811431885,0.41190654039382935,0.9136939417393971,67371048,
-0.12092047929763794,-0.11541950702667236,0.8803137070079509,77868077,
-0.24734890460968018,0.6729510426521301,0.9780884180074602,87380440,
-0.31678110361099243,0.28561151027679443,0.9260265885840246,97434565,
-0.05352795124053955,0.3533914089202881,0.744986756061144,109887268,
0.26436150074005127,0.5220679640769958,1.2092854358210183,117426447,
0.23324614763259888,-0.10393333435058594,0.9006106106438339,127474778,
0.266269326210022,0.5419023036956787,0.8975366188278432,137509898,
-0.123904287815094,0.5289083123207092,0.897180854589592,147490287,
-0.08110111951828003,-0.006796300411224365,0.897574738910408,157506938,
0.03155475854873657,0.20443910360336304,0.894442276321409,167482312,
-0.37824106216430664,-0.09652304649353027,0.8784749520721838,177559376,
-0.008989810943603516,0.5335316061973572,0.7388400865201938,189498929,
0.37019991874694824,0.631293773651123,1.0801302811509756,197615060,
0.1476193070411682,-0.1258578896522522,0.8851983509272001,207596684,
0.14366644620895386,0.32000356912612915,0.889412186059727,217676163,
-0.3342152237892151,0.4808928966522217,0.9115884092415762,227650396,
-0.4703786373138428,0.4266500473022461,0.9143798673758683,237738240,
0.0935969352722168,0.512391984462738,0.928607368855419,247718243,
0.4178621768951416,-0.13379836082458496,0.9282948852415811,257690692,
-0.16097062826156616,0.7849825620651245,0.8172574787647464,268934885,
-0.17223519086837769,0.479076087474823,1.020578471399017,277803850,
-0.06133723258972168,0.36429363489151,0.9813638620145435,286954380,
0.00305020809173584,-0.20777100324630737,0.8100825685216296,298026648,
0.004337310791015625,-0.18511414527893066,0.9278077832828068,307768622,
-0.052539169788360596,0.6103447675704956,0.909542305795759,317795909,
-0.44252127408981323,0.3257925510406494,0.9133742468583742,327761989,
-0.5530663132667542,0.25952500104904175,0.8853425809890608,338055657,
0.0680343508720398,0.11025494337081909,0.7933666245075863,349581524,
0.5098464488983154,-0.015582561492919922,1.1144243334526807,357778737,
0.5453640222549438,0.7695026993751526,0.8923844285435144,367883207,
-0.12092161178588867,0.33053964376449585,0.8913198375657385,377844557,
-0.36708492040634155,-0.0792316198348999,0.8695492811398864,388110224,
-0.22770988941192627,0.5200232863426208,0.8979445326987457,398152217,
-0.12732774019241333,0.15110671520233154,0.9343739965754952,407878324,
0.48741477727890015,0.5118589401245117,0.9147612855519079,417871211,
0.10695254802703857,0.3643319606781006,0.776061737183667,429606376,
-0.1270020604133606,-0.14555644989013672,1.2409839276634658,436971681,
-0.0913425087928772,0.723235011100769,0.8349775848794889,448028123,
-0.23336392641067505,0.2618812322616577,0.9216916896058726,458026011,
0.2420991063117981,0.2622145414352417,0.9118784351144501,468103372,
0.25256168842315674,0.505025327205658,0.9162849650961346,478127024,
0.12003082036972046,0.06303101778030396,0.930741734335167,488040881,
-0.03985875844955444,0.5415527820587158,0.9288186535587488,498089365,
-0.022772789001464844,0.3217166066169739,0.7842137174418958,509862036,
0.30085593461990356,0.02535879611968994,1.0956054624811264,518108359,
0.018830597400665283,0.6578083038330078,0.8750058417262878,528153980,
-0.19512999057769775,-0.09527111053466797,0.8658862473404445,548107946,
-0.061060309410095215,0.1227489709854126,0.8708829141500023,558151247,
-0.17989224195480347,-0.012843132019042969,0.8777723774018767,568175128,
-0.11322098970413208,0.7648885846138,0.8946262960131691,578128499,
-0.08061707019805908,0.12267684936523438,0.8334460763449432,588900551,
-0.18191754817962646,-0.3168630599975586,0.977923256692621,598176488,
0.14005357027053833,0.8298404216766357,1.004651658040306,607201984,
0.025803029537200928,0.7761104702949524,0.669321637318608,620549431,
-0.2066103219985962,0.8368586301803589,1.145000301483222,628257310,
-0.24372142553329468,0.21836543083190918,0.8830880009678197,638232252,
-0.29295241832733154,-0.4819177985191345,0.8901232737640483,648278364,
0.08662068843841553,0.22594022750854492,0.9108679754173589,658227570,
0.3452272415161133,0.5968576073646545,0.804076675698427,669449882,
0.151641845703125,0.3565945625305176,1.0218180363078986,678247977,
-0.19421082735061646,0.08726084232330322,0.901035836381862,688299595,
-0.43584364652633667,-0.36575978994369507,0.7325731299121381,700794277,
0.2717617154121399,0.390733540058136,1.220526157052514,708299285,
0.7613370418548584,0.7230507135391235,0.8923347472315892,718293633,
0.20521461963653564,0.36087965965270996,0.8613872936828495,728406023,
-0.27166879177093506,0.28296756744384766,0.8765220948215607,738332934,
-0.3973831534385681,-0.09575837850570679,0.744749813896352,750133171,
-0.43505924940109253,0.12427544593811035,1.0787374681105462,758351136,
-0.027869701385498047,0.686369776725769,0.8803955714514966,768417985,
0.128933846950531,0.20548254251480103,0.7007780186392978,781102389,
0.04084610939025879,0.3853527307510376,1.1969674312129752,788628452,
0.08648228645324707,0.39926677942276,0.9322308791953807,798416364,
0.10799425840377808,0.26003897190093994,0.9174898007942661,808500639,
0.016123831272125244,0.4473276734352112,0.9378576745571022,818434072,
0.00935596227645874,0.06840503215789795,0.8402821743268577,829545037,
-0.21672159433364868,-0.04360455274581909,1.0484275402279213,838451189,
-0.08182454109191895,0.49517208337783813,0.9212379749406867,848511165,
-0.2225300669670105,0.07195669412612915,0.7304070045649301,861071151,
0.25110429525375366,0.3049399256706238,1.212346256355183,868502111,
-0.06358921527862549,0.4019286632537842,0.8837508340486961,878525982,
-0.13218915462493896,0.13369739055633545,0.876896154903229,888564462,
0.19787871837615967,0.6242604851722717,0.8714243015848817,898568010,
-0.17222917079925537,-0.0067160725593566895,0.7676036547370145,909975797,
-0.01860755681991577,-0.049594223499298096,1.0321088139696664,918590247,
0.10696291923522949,0.443073034286499,0.8673003511298023,928851503,
-0.07902324199676514,0.21939480304718018,0.9032167019348227,948658285,
-0.13338923454284668,0.2120356559753418,0.9051223303546425,958626685,
0.21365082263946533,-0.03288698196411133,0.9034583488375928,968704400,
0.0652928352355957,0.9996253252029419,0.9067245952340374,978650417,
-0.026198863983154297,0.4403495192527771,0.8070545778483849,989750669,
-0.18236351013183594,0.14874643087387085,1.0190286215591327,998664776,
0.05067223310470581,0.46538037061691284,0.9934191707331227,7936203,
0.29284411668777466,-0.2427445650100708,0.6878226725298382,21557786,
0.3411201238632202,0.31319862604141235,1.2993416416050212,28711600,
-0.1147422194480896,0.5479636192321777,0.8975070705771396,38764143,
-0.5900958776473999,-0.09308207035064697,0.8873512128241439,48860748,
-0.2536970376968384,0.634192168712616,0.9070338174550151,58736570,
0.3133363723754883,0.04740273952484131,0.8112853542004713,69858498,
1.1181093454360962,0.031138300895690918,1.019682737988649,78763753,
0.412617027759552,0.6142853498458862,0.8902726144489255,88819982,
-0.6639673113822937,-0.08603650331497192,0.6737229057051954,102122796,
-0.44828712940216064,0.4209710359573364,1.3378946108068472,108869572,
-0.6448056697845459,0.14796286821365356,0.8723529916580698,119200961,
-0.13985908031463623,-0.1676778793334961,0.9193459378206577,129003823,
0.4725463390350342,1.0545142889022827,0.8912927464416261,138954104,
0.2197355031967163,0.4154704809188843,0.8014524922243451,149878797,
-0.3255855441093445,0.42713069915771484,0.9430371274070561,159175524,
-0.15596377849578857,-0.2877163887023926,0.8851891948901566,169127732,
0.04848366975784302,0.5690290927886963,0.698754127982257,181867851,
0.4181053042411804,0.5131754875183105,1.2230546002555516,189077763,
0.247597336769104,-0.3950076103210449,0.8813604749404376,199006594,
-0.12595456838607788,0.29230135679244995,0.8864486263001846,209026573,
-0.18588286638259888,0.07409852743148804,0.887366774180288,219063380,
-0.09168201684951782,0.42550182342529297,0.7915687983372929,230173155,
0.08767569065093994,0.8569239377975464,0.9723766633316414,239036149,
0.2141016125679016,-0.19833165407180786,0.8430156237167031,249074879,
0.20903408527374268,0.2881016731262207,0.6602460779118303,262125925,
0.031588613986968994,0.532267153263092,1.2662388329622496,269091140,
-0.6480867862701416,0.1448853611946106,0.8873662759612819,279120799,
-0.3606110215187073,0.6756340265274048,0.8922812787975931,289125839,
-0.11957752704620361,-0.0011123418807983398,0.8830582176958911,299149620,
0.179296612739563,0.08318263292312622,0.8489487495537207,309616060,
0.6076545119285583,0.6975916028022766,0.9349599462811482,319149299,
0.004609048366546631,0.09159642457962036,0.876279941214443,329185647,
-0.6331890225410461,0.09487813711166382,0.8678993392357971,349364037,
-0.5511608719825745,-0.27459096908569336,0.8884015392192323,359339971,
0.18398398160934448,0.6327258348464966,0.9138884253598112,369295379,
0.2513679265975952,0.1388477087020874,0.9257368866036508,379230875,
0.4204676151275635,0.17056411504745483,0.9045318757489978,389497161,
-0.02925783395767212,0.5590624809265137,0.9539314578241557,399263267,
-0.30715954303741455,-0.11928761005401611,0.9176654938188294,409333657,
-0.09901231527328491,0.6275634169578552,0.723677989829186,422000378,
0.19799911975860596,0.5863528251647949,1.229004742893531,429290380,
0.334539532661438,0.05530190467834473,0.8695271117492512,439378610,
-0.21388763189315796,0.4011918902397156,0.8771121430871506,449386666,
-0.1872788667678833,0.09617209434509277,0.8856484922807591,459363671,
-0.17411136627197266,0.15022587776184082,0.8444372415502218,469960974,
0.13067305088043213,0.361583411693573,0.9495828040862324,479352627,
0.08148461580276489,-0.026632964611053467,0.8530894079598943,489642938,
0.043524861335754395,0.574316143989563,0.727160010597654,501629419,
-0.0142555832862854,0.4852489233016968,1.1036786549083835,509438825,
-0.2584673762321472,0.14024436473846436,0.8533330494522716,519465465,
0.35550588369369507,0.3471848964691162,0.8519189662151752,529521462,
0.27313488721847534,0.2502259612083435,0.8616486463726364,539470359,
-0.140671968460083,0.38112932443618774,0.8170458559743783,549974069,
-0.1017044186592102,0.18175607919692993,0.9052393861008827,559479075,
-0.3466986417770386,-0.22833889722824097,0.8382454273640727,569799462,
0.0913737416267395,0.16901618242263794,0.7471632704114226,581542419,
0.4056916832923889,0.48850196599960327,1.107248846294221,589524435,
-0.053578078746795654,0.07985323667526245,0.8772177367823828,599591872,
-0.2639925479888916,0.17523688077926636,0.8829413302336043,609641562,
-0.14696073532104492,0.06495445966720581,0.8910717622739532,619613986,
-0.12176936864852905,0.5112156271934509,0.9560727362847171,628901789,
0.16726726293563843,0.7828203439712524,0.8342456161916031,639580560,
0.008069038391113281,-0.0943952202796936,0.8725730574982984,649825034,
-0.08789151906967163,0.3965272903442383,0.7731288092606265,661512651,
-0.014910399913787842,0.4988434910774231,1.1182185585425777,669629050,
0.29485124349594116,0.07580184936523438,0.8985282358879841,679662716,
0.0796615481376648,0.4544728994369507,0.8861787521822081,689715527,
-0.24103766679763794,0.012087643146514893,0.8935664499407278,699672476,
-0.24083411693572998,0.17330676317214966,0.8900972257166965,709740434,
-0.2715628743171692,0.40539079904556274,0.9009872470836859,719668775,
0.3128761649131775,-0.28782910108566284,0.8724042329521662,729890897,
0.10687869787216187,0.22056013345718384,0.7171180818877904,742223171,
-0.5651671290397644,0.4495593309402466,1.1616222894395043,749770003,
-0.6280335783958435,0.24929553270339966,0.8767643824159647,759775634,
-0.2221914529800415,0.6068674921989441,0.8739939077236546,769817484,
0.7065898776054382,-0.08627372980117798,0.8920132138658593,779718663,
0.8736937046051025,0.18425852060317993,0.874578724333773,789828900,
0.3259081244468689,0.7230760455131531,0.8778813441148184,799755866,
-0.49674880504608154,0.2256491780281067,0.9485284128513273,808920110,
-0.6606594920158386,0.2488148808479309,0.686153404316806,821635804,
-0.3761078119277954,-0.016852855682373047,1.0697795849974607,829808030,
-0.3338925838470459,-0.17525935173034668,0.8676004394980427,839882726,
0.38539332151412964,0.8839324712753296,0.8695179624821555,849862263,
0.33934521675109863,0.38475990295410156,0.876695096423545,859836791,
-0.0419389009475708,0.1226317286491394,0.8591261725127504,870238841,
-0.07936948537826538,0.34948718547821045,0.937616127660719,879878729,
-0.5622639060020447,0.007877469062805176,0.8973065679469003,889984245,
-0.060350120067596436,0.6202126145362854,0.7697394279104381,901631856,
0.08854705095291138,0.5872945785522461,1.0632986469420564,909948155,
0.5675662159919739,0.038497984409332275,0.8857943631003565,919973368,
0.6448861360549927,0.12602943181991577,0.7063953376406942,932502123,
0.14060252904891968,0.06538653373718262,1.1721403935949974,939983702,
-0.3663741946220398,0.46185505390167236,0.8640263671755722,950047341,
-0.20868396759033203,0.5746855735778809,0.8621001302480364,959987883,
-0.1930859088897705,-0.23349052667617798,0.8571213842929879,970049319,
-0.08871138095855713,-0.17426782846450806,0.7552994031781665,981650912,
0.3197508454322815,0.3355543613433838,1.0457878340961568,990086992,
-0.29905152320861816,0.30005598068237305,0.8888765896016938,76717,
-0.4004007577896118,0.686328113079071,0.712135079051891,12531016,
-0.29965150356292725,0.029810667037963867,1.1668131991773731,20155399,
0.020602405071258545,0.1228376030921936,0.8966637620311745,30207229,
0.8284513354301453,0.730327308177948,0.897022457556223,40269497,
0.3052542209625244,0.2910866141319275,0.8914287373282123,50267587,
-0.550804615020752,0.27802377939224243,0.7462164940075713,62025347,
-0.41809219121932983,-0.20865291357040405,1.0506298899864357,70304258,
0.11281448602676392,0.07129698991775513,0.8619659651533782,80446435,
0.1416265368461609,0.04497647285461426,0.7207863696019498,92671704,
0.1808452606201172,0.22039425373077393,1.1299647503698143,100496894,
-0.28452348709106445,0.4842052459716797,1.0098456043487887,109272705,
-0.4957199692726135,-0.2237381935119629,0.807164290360048,120305467,
0.11603236198425293,0.2874520421028137,0.9080100762898471,130294559,
0.572525680065155,0.5964232683181763,0.818252409550348,141555169,
0.6185868382453918,0.35432934761047363,1.0491797493501696,150292134,
-0.048160433769226074,0.48473668098449707,0.8847898378576321,160470813,
-0.3064762353897095,-0.10700321197509766,0.7032186567294815,173019571,
-0.29689687490463257,0.23321348428726196,1.2029707169942605,180303681,
0.24706566333770752,0.7738466858863831,0.8559631316320747,190411584,
0.2816421389579773,0.09392368793487549,0.8449614670692793,200416196,
0.0014722347259521484,0.21089643239974976,0.8398928143766446,210398568,
0.12258750200271606,0.1381874680519104,0.750348377425772,221634256,
-0.4640069603919983,-0.13014477491378784,0.9901464964943928,230424519,
-0.33609724044799805,0.4937695264816284,0.8895798858940105,240488759,
0.07469230890274048,0.17985224723815918,0.6927604038446562,253411804,
0.1470150351524353,0.10010802745819092,1.2608870666071816,260511075,
0.044647812843322754,0.24269044399261475,0.8994759170795834,270487888,
-0.5281879305839539,0.30509716272354126,0.8964942239573884,280511645,
-0.32396334409713745,0.7844967842102051,0.8916158674788085,290543860,
-0.2759127616882324,0.5010921359062195,0.7557825231548485,302179696,
-0.1430918574333191,0.26215940713882446,1.0368725568702477,310552830,
0.48105156421661377,0.14592421054840088,0.8682629596873284,320570413,
0.2342616319656372,0.08117252588272095,0.6828897384444452,333471492,
-0.18984448909759521,0.2538878917694092,1.25449324834802,340575984,
-0.2988988757133484,0.29212135076522827,0.8800955309129421,350653174,
-0.5074610114097595,0.025123238563537598,0.8803770109380122,360630308,
-0.18278616666793823,0.3022714853286743,0.8735223500944638,370654732,
0.5070438385009766,0.2111225724220276,0.7468870324706302,382306978,
0.755303680896759,-0.017942488193511963,1.0411061538129673,390635350,
0.11468130350112915,0.4365452527999878,0.8578342881484471,400755827,
-0.22969019412994385,0.24925541877746582,0.6687635502229755,413783321,
-0.5812335014343262,0.041857898235321045,1.2879368705795087,420660254,
-0.282066285610199,0.4141656756401062,0.8884340083741633,430755138,
0.37714338302612305,0.19407522678375244,0.8923026751473008,440766786,
0.6350051164627075,0.37761884927749634,0.8574961934964689,450979542,
0.06307971477508545,0.5303518772125244,0.802646033438829,461625443,
-0.47339844703674316,0.29904353618621826,0.9322376245102695,470749871,
-0.18853843212127686,0.37081682682037354,0.8539993152977192,480815620,
0.03431427478790283,0.11620461940765381,0.6927468670783388,493494678,
-0.0028426051139831543,0.010894477367401123,1.1783568492675678,501124522,
0.11525845527648926,0.37627965211868286,0.9380595111725993,510828367,
-0.14293724298477173,0.19155997037887573,0.9117679742139962,520880903,
-0.2582571506500244,0.32235002517700195,1.0165247149482346,529899202,
-0.30485886335372925,0.49043989181518555,0.7775679811425975,541606422,
-0.1295682191848755,0.24138480424880981,0.971626385841468,550867191,
0.3494935631752014,0.6567909717559814,0.9767877977181013,559935379,
0.08842265605926514,0.24800580739974976,0.6815173890521503,572916240,
-0.28117430210113525,0.00019162893295288086,1.282083566058518,579937462,
0.15073388814926147,0.10325312614440918,0.8231796600484573,591159476,
0.18233877420425415,-0.19676589965820312,0.9500997911930862,600966943,
0.4333201050758362,0.22716635465621948,0.9109267128315998,611001788,
0.16836178302764893,0.3336661458015442,0.8034806070131265,622063135,
-0.09712761640548706,-0.1261795163154602,0.9939776955925066,630955788,
-0.20868819952011108,0.714563250541687,0.8749958086097348,641047784,
-0.33220338821411133,0.3761634826660156,0.7044147156273219,653484097,
-0.3314358592033386,0.42556053400039673,1.1616543152944487,660994225,
-0.22867238521575928,0.7462412714958191,0.8552257937897166,671221889,
0.18737167119979858,-0.14196228981018066,0.9066864206820643,681038329,
0.10198616981506348,0.24400103092193604,0.8948163487652782,691168166,
-0.2365255355834961,0.1525673270225525,0.837113865535667,702025721,
-0.28044068813323975,-0.16850125789642334,0.9931815662462318,711096207,
-0.2950201630592346,0.9831191301345825,0.8819918937177414,721129035,
0.10964685678482056,0.2686901092529297,0.7142363717252267,733506867,
0.6635994911193848,-0.042441606521606445,1.1728338474393147,741146109,
0.7237719893455505,0.3906856179237366,0.8825695061889616,751242252,
-0.18844568729400635,-0.1535741686820984,0.8930582080875191,761161531,
-0.5825394988059998,0.5697288513183594,0.878859794937818,771192352,
-0.527032196521759,0.3958647847175598,0.837378979836523,781654757,
-0.4839281439781189,-0.46918821334838867,0.9243952401869221,791207646,
0.3002399802207947,0.29334306716918945,0.8586098834394283,801469260,
0.25696659088134766,0.29226911067962646,0.7246486023740776,813502368,
-0.10076677799224854,0.5774603486061096,1.1174948747773321,821291099,
-0.23021310567855835,0.8976904153823853,0.859039510822862,831440835,
-0.4612639546394348,-0.06293487548828125,0.9051927327964809,841278163,
0.2579113841056824,0.19589775800704956,0.9978386076358717,850305446,
0.5930009484291077,0.22791481018066406,0.8203330545415759,861122747,
0.16636842489242554,0.09258300065994263,0.8571425658881255,871388650,
-0.4249924421310425,0.5868967175483704,0.862493573440674,881486076,
-0.40201687812805176,-0.031806886196136475,0.6910115907295631,893982350,
-0.19019627571105957,-0.19429999589920044,1.1614242049670407,901363873,
0.39897459745407104,0.5517110824584961,0.8340596495028487,911440124,
0.44360268115997314,0.2462540864944458,0.8368584510537689,921528788,
-0.034659743309020996,0.4159095287322998,0.8669384487868628,931486242,
-0.22017723321914673,0.11119943857192993,0.8667702749217575,941631814,
-0.10781538486480713,0.5406797528266907,0.8872359522177748,951694016,
0.4031188488006592,0.7684798836708069,0.862803626260403,961881213,
0.27645111083984375,0.10443925857543945,0.7160141054954112,973882967,
0.015416741371154785,0.3260558843612671,1.1211317127823766,981591827,
-0.44524747133255005,0.004562497138977051,0.8845485059434883,991528953,
-0.07851386070251465,0.6060477495193481,0.8886737426701184,1546153,
-0.043060481548309326,0.7384523153305054,0.8877074475256497,11520041,
-0.24580013751983643,-0.23205357789993286,0.8059566400299606,22435760,
-0.1274668574333191,0.16926133632659912,0.9789909297509996,31604319,
-0.09758281707763672,0.3593577742576599,0.9209854635469827,41550903,
0.12151753902435303,-0.017827391624450684,0.7534894110950221,53829997,
0.2727886438369751,0.5580891370773315,1.1886045695116572,61569974,
-0.027376115322113037,0.1566484570503235,0.8923663565717606,71639323,
-0.09070783853530884,0.43803519010543823,0.8886531815356706,81649055,
0.06791049242019653,0.6938250064849854,0.8910796324683093,91679573,
0.28755438327789307,-0.22664093971252441,0.8972902964655901,101705357,
0.2637476921081543,0.2781869173049927,0.9087138559291419,111658633,
-0.13872694969177246,0.2791762948036194,0.8926162735224534,121711983,
-0.47155988216400146,-0.0047013163566589355,0.7557219811466026,133537666,
-0.3992028832435608,0.33537453413009644,1.1070603751671775,141657317,
-0.15055936574935913,-0.2408415675163269,0.892164471616456,151758090,
0.28741204738616943,0.005523562431335449,0.9054813451422732,161757366,
0.08819812536239624,0.8527655005455017,0.8961823944176205,171783397,
-0.346116304397583,0.18292474746704102,0.8890729060637422,181792537,
-0.4603525996208191,0.5534245371818542,0.8987746609695108,191760130,
-0.08656156063079834,0.35341876745224,0.893015383227979,201797465,
0.5599408745765686,0.08092910051345825,0.7338506686127736,213956472,
0.5389120578765869,0.7785344123840332,1.1329344252589595,221765684,
-0.4580649733543396,-0.015652179718017578,0.8655236392814754,231803409,
-0.502510666847229,0.09594529867172241,0.8570760136479163,241866988,
-0.06850552558898926,0.4595063328742981,0.7942095892504675,252593008,
0.41602128744125366,-0.1671515703201294,0.8364386651290556,262554078,
0.6140564680099487,0.3722957372665405,0.8286408638654325,272556704,
0.09336411952972412,0.2787516713142395,0.8496755143184961,282467736,
-0.5405543446540833,-0.025661468505859375,0.7882888334794615,293500947,
-0.5970544815063477,0.42304474115371704,0.9832127651898276,302493983,
-0.1620132327079773,0.09640586376190186,0.8617524512383805,312722623,
0.5266103148460388,0.227666974067688,0.7490603860187235,324470432,
0.25875723361968994,0.6393514275550842,1.077204884989728,332564747,
-0.2789319157600403,0.08735942840576172,0.8675087987185875,342556075,
-0.3689257502555847,0.5704001188278198,0.8581600280230209,352612583,
-0.225568950176239,0.41500556468963623,0.8570949340771646,362533372,
-0.008536994457244873,0.12965595722198486,0.7725714243906318,373516997,
0.23695296049118042,0.6182442307472229,0.953248253030765,382557194,
-0.11056697368621826,0.05620622634887695,0.8784243399145344,392670251,
-0.3300192952156067,-0.14479750394821167,0.7663597097336851,404581014,
-0.02330172061920166,0.14768654108047485,1.126983566822438,412662731,
-0.053754448890686035,-0.05324214696884155,0.9013191721080812,422643235,
-0.23708808422088623,0.5876601934432983,0.8924729673383706,432642744,
0.08287543058395386,0.5077733397483826,0.8725173348981089,442596159,
0.2267788052558899,-0.08861804008483887,0.7798485344695357,453574399,
0.43593811988830566,0.43575018644332886,0.9416892660672715,462627821,
0.03483098745346069,0.2560539245605469,0.8477980901239005,472684840,
-0.6066926717758179,0.36097288131713867,0.7167098569223405,484607714,
-0.5630233287811279,0.5106198191642761,1.07211418972251,492617413,
-0.5338780283927917,-0.17820751667022705,0.8540441826118178,502666060,
0.4870906472206116,0.2716580629348755,0.8571345343646699,512690376,
0.7905218601226807,0.6302622556686401,0.8626746714557532,522606490,
-0.10242801904678345,0.257937490940094,0.7309062647564668,534321937,
-0.40320783853530884,0.6642351150512695,1.0311433950117066,542617404,
-0.36512768268585205,0.06010192632675171,0.8591670250112704,552664795,
0.06365841627120972,-0.06273937225341797,0.7299907658104511,564701461,
0.5365028977394104,0.6439495086669922,1.109040344420125,572664610,
0.25829899311065674,0.07093822956085205,0.8908201244972903,582715709,
-0.3875952959060669,0.15614724159240723,0.909749785838396,592681256,
-0.8596262335777283,0.11792123317718506,0.9057530654426408,602680181,
-0.241166889667511,-0.35558217763900757,0.8354175313250262,613540550,
0.37673139572143555,0.8687644004821777,0.9833454729958802,622659269,
0.6492237448692322,0.4664164185523987,0.8761417740766642,632699871,
0.1418176293373108,0.103706955909729,0.7780099768691623,644198263,
-0.4550497531890869,0.521557092666626,1.0449749404242437,652846083,
-0.30469441413879395,-0.00776749849319458,0.9151902339887239,662742764,
-0.38718974590301514,0.4613887071609497,0.9071400726378571,672761803,
0.1681167483329773,0.6705077290534973,0.9124170565091679,682651089,
0.2990536689758301,-0.18566036224365234,0.8254720056079261,693712335,
-0.02835947275161743,0.3694949150085449,1.0163402802311152,702713402,
-0.12828969955444336,0.05657070875167847,0.8951151742964577,712788407,
-0.4222760796546936,-0.11648809909820557,0.7053201886859843,725456296,
-0.11526179313659668,0.945943295955658,1.2154010206208927,732702260,
0.02994757890701294,0.14778876304626465,0.8760064518570552,752765873,
0.25047367811203003,0.2666980028152466,0.8807124818710489,762747476,
0.2053203582763672,-0.39152324199676514,0.7926353076733483,773877863,
0.1160513162612915,0.8194809556007385,0.977688309828766,782787525,
-0.3969900608062744,0.652214527130127,0.9348243132977839,791940008,
-0.24652427434921265,-0.1006813645362854,0.6864185656880221,804519232,
0.07962298393249512,0.3124825954437256,1.0483163861022642,812840108,
0.514294445514679,-0.0836973786354065,0.850329988351491,823091309,
0.19519490003585815,0.4094316363334656,0.8761423107684702,832985948,
-0.5804516077041626,0.8733636736869812,0.9554691567692835,841906427,
-0.3108605742454529,0.03961074352264404,0.7115443909571959,853970650,
0.23797506093978882,0.21587878465652466,0.9474771406268703,863154873,
0.8091504573822021,0.23954784870147705,0.8559014513324471,873303767,
0.3224928379058838,0.9445130228996277,0.6891514588572194,885830619,
-0.35399556159973145,0.21481120586395264,1.404986170229958,891921632,
-0.525037407875061,-0.05335664749145508,0.7637678602204561,903144562,
-0.0933464765548706,0.3723911643028259,0.8833989973898124,912991708,
0.42730021476745605,0.047127485275268555,0.9731768057285082,921933103,
0.09880602359771729,0.436654269695282,0.7417709619735252,933621463,
-0.065121591091156,0.22059309482574463,1.0468696506086923,941918399,
-0.6190310716629028,-0.34401780366897583,0.7880035607554564,952976709,
-0.16052794456481934,0.5699115991592407,0.6956500290699108,965522552,
0.28714555501937866,0.5694370269775391,1.3461003018948745,971929010,
0.31950080394744873,0.5712180733680725,0.7702387570425168,982969685,
0.08276599645614624,0.4118660092353821,0.857098221836174,993038245,
-0.5279442071914673,-0.4964691996574402,0.8861032442024891,2954547,
-0.26682549715042114,-0.06845766305923462,0.840316390014124,13564865,
-0.22065550088882446,0.5549887418746948,1.0609166791021938,21929787,
-0.05904805660247803,0.32359713315963745,0.7913164407407174,33008448,
0.20793867111206055,0.5305097699165344,0.6596505814995749,46220019,
-0.0759514570236206,0.011165261268615723,1.283363777390372,53004103,
-0.13113188743591309,0.12211602926254272,0.8630237971661295,63268566,
-0.06914299726486206,0.8070279359817505,0.9152038063815813,72984297,
0.09236550331115723,0.26975327730178833,0.8787398195253269,83016620,
-0.22446703910827637,0.30511581897735596,0.8063447537771301,93942585,
-0.11195582151412964,0.2372543215751648,0.9702557785248486,103020977,
0.019517958164215088,-0.41732311248779297,0.8821532666661637,113061825,
0.05346184968948364,0.3991813063621521,0.7008360245714046,125721585,
-0.09752291440963745,0.39192330837249756,1.1900089325946013,133051671,
-0.2610718011856079,0.3678528666496277,0.8562673012222509,143303776,
-0.14623284339904785,0.7860678434371948,0.9116051566214223,153117810,
0.23441332578659058,-0.2521820068359375,0.9182486039597286,163100237,
0.6288371086120605,0.04344099760055542,0.8482838987393706,173981228,
0.26678818464279175,0.5636950135231018,0.9870594901726116,183139172,
-0.4000462293624878,0.2598150968551636,0.8650991865598354,193421336,
-0.4314996600151062,0.6593830585479736,0.7147379279361169,205797220,
-0.5942325592041016,0.20078498125076294,1.1823531558248914,213159734,
0.09873008728027344,-0.13508999347686768,0.8620449501434403,223356614,
0.830633819103241,0.6539362668991089,0.8911358560240279,233230714,
0.12221395969390869,0.12678509950637817,0.8762319234141251,243247816,
-0.4964410662651062,0.16081589460372925,0.8562678712244556,253586648,
-0.5771123170852661,0.2552046775817871,0.9192198202764554,263234647,
-0.48750370740890503,-0.10440927743911743,0.8913807415837897,273261411,
0.567639172077179,0.7814769148826599,0.7282962477602298,285572509,
0.4465709924697876,0.1399807333946228,1.1523627153999398,293288847,
-0.2323175072669983,-0.0838778018951416,0.8899762239611712,303337094,
-0.6173560619354248,0.8049337863922119,0.8871747569140043,313376446,
-0.40671366453170776,0.24467289447784424,0.982262806596465,322352936,
0.17480170726776123,0.4670981168746948,0.7835442927462627,333581333,
0.48722076416015625,0.31174027919769287,0.9960142705567663,342366459,
0.31260251998901367,-0.22080892324447632,0.8846033670518568,352416521,
-0.40684956312179565,0.6058660745620728,0.6542906336117613,366223447,
-0.34475094079971313,0.48192256689071655,1.24810221787984,373384937,
0.01339876651763916,-0.17915546894073486,0.882374669958795,383429191,
0.07616251707077026,0.3314414620399475,0.8686379875828515,393480053,
0.10005199909210205,0.1491735577583313,0.8526182426736295,403488001,
0.07245069742202759,0.5177963376045227,0.8305133545153249,413551065,
0.0948062539100647,0.46232348680496216,0.82908274794884,423493506,
-0.15173941850662231,-0.15473616123199463,0.8105401856244692,433744028,
-0.02521437406539917,0.48777633905410767,0.72379336787437,445548543,
-0.33120763301849365,0.43943989276885986,1.0922432170670213,453506805,
-0.5373586416244507,-0.0634276270866394,0.8813771018276152,463541163,
0.01972019672393799,0.3087615966796875,0.8776387107468295,473593848,
0.16327250003814697,0.047464191913604736,0.8730725318322018,483582655,
0.12066125869750977,0.4487420916557312,0.8256110817997062,494016360,
-0.23670566082000732,0.8256721496582031,0.8843978224656828,503616069,
-0.2653138041496277,0.07469570636749268,0.8555103264310043,513587571,
0.14425122737884521,0.3486807942390442,0.7133629913949087,525819890,
0.4143977761268616,0.228302001953125,1.1403525297146453,533596277,
0.3033508062362671,0.018143296241760254,0.8990992437581332,543638492,
-0.387251615524292,0.7607911825180054,0.9004338884480553,553671907,
-0.4350518584251404,0.3027417063713074,0.9663078364391806,562944600,
-0.1913798451423645,0.10932528972625732,0.8245697855872219,573700532,
0.2310810685157776,0.45523983240127563,0.872210768485351,583698796,
0.4579126834869385,-0.1208375096321106,0.9230273550924003,592974950,
0.005676329135894775,0.6878306865692139,0.6656551619088845,605578184,
-0.4659888744354248,0.35355865955352783,1.0295049450548992,613706770,
-0.5403947234153748,-0.34262967109680176,0.8528456238904283,623768008,
-0.10210466384887695,0.30451780557632446,0.8687337308119417,633872561,
0.28888219594955444,0.23881375789642334,0.8913743061508447,653878237,
-0.2217116355895996,0.5504745841026306,0.8809439993976873,663842136,
-0.38196510076522827,-0.18586283922195435,0.8760525860234751,673803077,
-0.2537885308265686,0.7506494522094727,0.709578944342842,685989364,
-0.1771872639656067,0.8443940281867981,1.0934744839655843,693814162,
-0.12151926755905151,0.11498475074768066,0.9524728378242634,702912652,
0.07452422380447388,0.5122923851013184,0.8081143050800926,713883848,
-0.13977199792861938,-0.016169607639312744,0.9004169368835865,724020123,
-0.17927372455596924,0.011932849884033203,0.928238863459271,734000463,
0.09260869026184082,0.5673993229866028,0.9173445234096841,744010445,
0.14882171154022217,0.40828537940979004,0.8911985417505978,754212439,
-0.10977935791015625,0.4092225432395935,0.8413686789159892,764920404,
0.22614139318466187,-0.2357480525970459,0.9930976549378538,773976089,
0.22490590810775757,0.6045373678207397,0.8835759531480666,784183463,
